# The SpeX Prism Spectral Libraries
# spty = NIR:T6  (Spectral type)
#
#     WAVELENGTH	#            FLUX	
#     (ANGSTROM)	#   (ERG/CM2/S/A)	
################	#################	
      6572.10000	      6.42763e-03	
      6593.97000	      1.28206e-02	
      6615.76000	      5.98056e-04	
      6637.48000	     -2.02936e-02	
      6659.14000	      4.71256e-04	
      6680.74000	      1.66306e-02	
      6702.30000	      4.44421e-03	
      6723.83000	      1.24432e-02	
      6745.33000	     -1.89118e-04	
      6766.81000	      3.79494e-03	
      6788.28000	     -7.11885e-04	
      6809.75000	      5.53690e-03	
      6831.22000	      1.10319e-02	
      6852.71000	     -3.47386e-04	
      6874.21000	      5.11898e-03	
      6895.74000	     -1.14237e-02	
      6917.31000	      2.63418e-03	
      6938.91000	      6.84742e-03	
      6960.56000	      5.59439e-03	
      6982.27000	     -1.01062e-02	
      7004.03000	      6.89212e-03	
      7025.86000	      6.53962e-03	
      7047.77000	      1.19377e-02	
      7069.75000	      9.28231e-04	
      7091.81000	      1.72430e-02	
      7113.96000	     -3.16360e-03	
      7136.20000	      7.29134e-03	
      7158.54000	      5.19845e-03	
      7180.98000	      6.70297e-03	
      7203.53000	      1.00990e-02	
      7226.19000	     -6.85996e-03	
      7248.98000	     -1.63415e-03	
      7271.88000	     -5.48308e-03	
      7294.90000	      3.87728e-03	
      7318.06000	      5.99420e-03	
      7341.35000	     -1.18515e-03	
      7364.77000	      5.83165e-04	
      7388.34000	      2.10089e-03	
      7412.05000	      4.14978e-03	
      7435.91000	     -5.05968e-04	
      7459.92000	      3.30571e-03	
      7484.08000	      5.82242e-04	
      7508.40000	      2.36786e-03	
      7532.88000	     -2.50542e-03	
      7557.52000	      3.18511e-04	
      7582.33000	     -1.25632e-02	
      7607.30000	     -6.53545e-03	
      7632.44000	     -8.05591e-03	
      7657.76000	     -5.34109e-04	
      7683.25000	      5.88568e-04	
      7708.91000	     -1.64818e-03	
      7734.76000	     -8.87356e-04	
      7760.78000	      9.49025e-04	
      7786.99000	     -6.33262e-03	
      7813.37000	     -1.39378e-04	
      7839.95000	     -2.98327e-03	
      7866.71000	      2.74552e-03	
      7893.66000	      5.44258e-04	
      7920.79000	     -1.70722e-03	
      7948.12000	      1.30903e-03	
      7975.64000	     -5.96027e-04	
      8003.35000	      2.42753e-03	
      8031.25000	     -2.59456e-03	
      8059.35000	      8.50688e-04	
      8087.64000	     -2.29613e-03	
      8116.12000	      1.32794e-03	
      8144.80000	      1.94138e-03	
      8173.68000	      2.18430e-03	
      8202.75000	      3.86542e-04	
      8232.02000	      1.44971e-03	
      8261.49000	      1.21410e-03	
      8291.16000	      2.09456e-03	
      8321.02000	      3.23447e-03	
      8351.08000	      8.85909e-04	
      8381.33000	      1.59347e-03	
      8411.79000	      1.37254e-03	
      8442.44000	      3.88832e-03	
      8473.28000	      3.26083e-03	
      8504.32000	      1.92407e-03	
      8535.56000	      1.49532e-03	
      8566.99000	      5.16297e-03	
      8598.62000	      3.87776e-03	
      8630.45000	      2.23794e-03	
      8662.46000	      4.46844e-03	
      8694.67000	      4.88266e-03	
      8727.07000	      6.27795e-03	
      8759.66000	      4.61534e-03	
      8792.45000	      1.00599e-02	
      8825.42000	      6.59601e-03	
      8858.58000	      5.93722e-03	
      8891.93000	      7.44674e-03	
      8925.47000	      3.60076e-03	
      8959.19000	      9.33681e-03	
      8993.09000	      8.83397e-03	
      9027.18000	      4.66588e-03	
      9061.45000	      1.06011e-02	
      9095.91000	      1.04471e-02	
      9130.54000	      1.04544e-02	
      9165.35000	      1.09514e-02	
      9200.34000	      1.23522e-02	
      9235.50000	      1.16041e-02	
      9270.83000	      1.00624e-02	
      9306.34000	      7.41715e-03	
      9342.02000	      6.55994e-03	
      9377.87000	      7.83626e-03	
      9413.89000	      1.09121e-02	
      9450.07000	      1.11420e-02	
      9486.42000	      1.08575e-02	
      9522.93000	      1.12139e-02	
      9559.61000	      1.22420e-02	
      9596.44000	      1.38904e-02	
      9633.43000	      1.32210e-02	
      9670.58000	      1.62529e-02	
      9707.88000	      1.93806e-02	
      9745.33000	      2.12708e-02	
      9782.93000	      2.32948e-02	
      9820.69000	      2.29417e-02	
      9858.59000	      2.57853e-02	
      9896.63000	      2.59485e-02	
      9934.82000	      2.39781e-02	
      9973.15000	      2.77343e-02	
     10011.60000	      3.21674e-02	
     10050.20000	      2.98395e-02	
     10089.00000	      3.26157e-02	
     10127.80000	      3.58889e-02	
     10166.80000	      4.00143e-02	
     10206.00000	      3.99797e-02	
     10245.20000	      4.13594e-02	
     10284.60000	      4.34991e-02	
     10324.10000	      4.76535e-02	
     10363.80000	      5.00394e-02	
     10403.50000	      5.12818e-02	
     10443.40000	      5.56078e-02	
     10483.40000	      5.71064e-02	
     10523.50000	      5.86050e-02	
     10563.70000	      6.16753e-02	
     10604.00000	      6.23067e-02	
     10644.40000	      6.32532e-02	
     10685.00000	      6.75143e-02	
     10725.60000	      6.88674e-02	
     10766.30000	      7.03032e-02	
     10807.10000	      7.10965e-02	
     10848.10000	      7.12888e-02	
     10889.10000	      7.04843e-02	
     10930.20000	      6.13542e-02	
     10971.40000	      5.09063e-02	
     11012.70000	      4.23772e-02	
     11054.10000	      3.29787e-02	
     11095.50000	      2.81927e-02	
     11137.10000	      2.27534e-02	
     11178.70000	      1.89258e-02	
     11220.40000	      1.75703e-02	
     11262.20000	      1.81268e-02	
     11304.00000	      1.76342e-02	
     11345.90000	      1.78913e-02	
     11387.90000	      1.74931e-02	
     11430.00000	      1.53780e-02	
     11472.10000	      1.78034e-02	
     11514.30000	      1.57760e-02	
     11556.50000	      1.59526e-02	
     11598.80000	      1.63580e-02	
     11641.20000	      1.55839e-02	
     11683.60000	      1.52899e-02	
     11726.00000	      1.79941e-02	
     11768.60000	      1.93633e-02	
     11811.10000	      2.31876e-02	
     11853.70000	      2.80135e-02	
     11896.40000	      3.23500e-02	
     11939.10000	      3.66632e-02	
     11981.80000	      4.18227e-02	
     12024.60000	      4.55185e-02	
     12067.40000	      5.00300e-02	
     12110.30000	      5.50385e-02	
     12153.20000	      6.00240e-02	
     12196.10000	      6.54917e-02	
     12239.00000	      7.02763e-02	
     12282.00000	      7.38570e-02	
     12325.00000	      7.76883e-02	
     12368.00000	      8.00588e-02	
     12411.10000	      8.17074e-02	
     12454.10000	      8.50322e-02	
     12497.20000	      8.86214e-02	
     12540.30000	      9.27187e-02	
     12583.40000	      9.88196e-02	
     12626.60000	      1.05492e-01	
     12669.70000	      1.07882e-01	
     12712.90000	      1.06744e-01	
     12756.00000	      1.08177e-01	
     12799.20000	      1.03358e-01	
     12842.40000	      9.95315e-02	
     12885.60000	      9.53629e-02	
     12928.70000	      9.25613e-02	
     12971.90000	      8.93537e-02	
     13015.10000	      8.41951e-02	
     13058.30000	      8.16095e-02	
     13101.40000	      7.60950e-02	
     13144.60000	      7.03077e-02	
     13187.80000	      6.39032e-02	
     13230.90000	      5.47704e-02	
     13274.10000	      4.19600e-02	
     13317.20000	      2.56047e-02	
     13360.30000	      1.35859e-02	
     13403.40000	      5.96778e-03	
     13446.50000	      3.71242e-03	
     13489.60000	      2.88888e-03	
     13532.60000	      2.92012e-03	
     13575.70000	      4.84512e-03	
     13618.70000	     -1.81523e-04	
     13661.70000	      2.36405e-03	
     13704.60000	      1.88734e-03	
     13747.60000	      3.26574e-03	
     13790.50000	      7.99748e-03	
     13833.40000	      4.33882e-03	
     13876.20000	      1.64889e-03	
     13919.00000	      1.36436e-03	
     13961.80000	      1.55459e-03	
     14004.60000	      1.86044e-03	
     14047.30000	      1.12517e-03	
     14090.00000	      3.07798e-03	
     14132.70000	      2.04471e-03	
     14175.30000	      9.38004e-04	
     14217.90000	      2.07942e-03	
     14260.50000	      1.93841e-03	
     14303.00000	      1.70678e-03	
     14345.40000	      2.54884e-03	
     14387.90000	      3.69289e-03	
     14430.30000	      3.23698e-03	
     14472.60000	      4.53051e-03	
     14514.90000	      5.41710e-03	
     14557.20000	      5.43722e-03	
     14599.40000	      6.23188e-03	
     14641.50000	      6.94816e-03	
     14683.60000	      7.17927e-03	
     14725.70000	      6.90795e-03	
     14767.70000	      7.65057e-03	
     14809.70000	      9.07931e-03	
     14851.60000	      8.52331e-03	
     14893.50000	      9.67355e-03	
     14935.30000	      1.12275e-02	
     14977.10000	      1.23749e-02	
     15018.80000	      1.28945e-02	
     15060.40000	      1.33348e-02	
     15102.00000	      1.58300e-02	
     15143.60000	      1.73306e-02	
     15185.10000	      1.96164e-02	
     15226.50000	      2.16988e-02	
     15267.90000	      2.38020e-02	
     15309.20000	      2.67867e-02	
     15350.50000	      2.84231e-02	
     15391.70000	      3.06895e-02	
     15432.80000	      3.28858e-02	
     15473.90000	      3.52954e-02	
     15515.00000	      3.72402e-02	
     15555.90000	      3.96335e-02	
     15596.80000	      4.21946e-02	
     15637.70000	      4.29627e-02	
     15678.50000	      4.57513e-02	
     15719.20000	      4.69324e-02	
     15759.90000	      4.87077e-02	
     15800.50000	      4.99856e-02	
     15841.00000	      4.92580e-02	
     15881.50000	      4.72100e-02	
     15921.90000	      4.69262e-02	
     15962.30000	      4.45122e-02	
     16002.50000	      4.10537e-02	
     16042.80000	      3.61230e-02	
     16082.90000	      3.01789e-02	
     16123.00000	      2.55899e-02	
     16163.00000	      2.03475e-02	
     16203.00000	      1.73672e-02	
     16242.90000	      1.50414e-02	
     16282.80000	      1.32664e-02	
     16322.50000	      1.26472e-02	
     16362.20000	      1.28645e-02	
     16401.90000	      1.30037e-02	
     16441.40000	      1.44766e-02	
     16481.00000	      1.54456e-02	
     16520.40000	      1.67193e-02	
     16559.80000	      1.63378e-02	
     16599.10000	      1.70849e-02	
     16638.30000	      1.42122e-02	
     16677.50000	      1.14464e-02	
     16716.60000	      9.66417e-03	
     16755.70000	      9.81042e-03	
     16794.70000	      1.07735e-02	
     16833.60000	      1.29723e-02	
     16872.40000	      1.49625e-02	
     16911.20000	      1.38938e-02	
     16950.00000	      1.26455e-02	
     16988.60000	      1.09407e-02	
     17027.20000	      1.04035e-02	
     17065.70000	      1.00132e-02	
     17104.20000	      1.06272e-02	
     17142.60000	      1.06946e-02	
     17180.90000	      1.21556e-02	
     17219.20000	      1.31464e-02	
     17257.40000	      1.25059e-02	
     17295.50000	      1.22757e-02	
     17333.60000	      1.09931e-02	
     17371.60000	      1.04069e-02	
     17409.60000	      9.80633e-03	
     17447.40000	      9.45990e-03	
     17485.30000	      9.41380e-03	
     17523.00000	      8.19820e-03	
     17560.70000	      8.13361e-03	
     17598.30000	      8.03195e-03	
     17635.90000	      8.49561e-03	
     17673.40000	      6.39488e-03	
     17710.80000	      5.99840e-03	
     17748.20000	      5.49844e-03	
     17785.50000	      5.86017e-03	
     17822.80000	      5.66451e-03	
     17860.00000	      5.36961e-03	
     17897.10000	      4.20721e-03	
     17934.20000	      3.97102e-03	
     17971.20000	      3.27752e-03	
     18008.10000	      5.23715e-03	
     18045.00000	      3.30915e-03	
     18081.80000	      3.02614e-03	
     18118.60000	      4.28896e-03	
     18155.30000	      5.08658e-03	
     18191.90000	      3.33483e-03	
     18228.50000	      5.78165e-03	
     18265.10000	      4.96542e-03	
     18301.50000	      7.57423e-03	
     18337.90000	      7.32309e-03	
     18374.30000	      3.92865e-03	
     18410.60000	      4.03543e-03	
     18446.80000	      4.64300e-03	
     18483.00000	      3.79112e-03	
     18519.10000	      6.38038e-03	
     18555.20000	      4.41693e-03	
     18591.20000	      2.89056e-03	
     18627.20000	      8.59790e-04	
     18663.10000	      3.81402e-03	
     18698.90000	      6.90730e-03	
     18734.70000	      5.72067e-03	
     18770.50000	      3.11650e-03	
     18806.10000	      6.37547e-03	
     18841.80000	      5.37597e-03	
     18877.30000	      4.09126e-03	
     18912.90000	      6.22120e-03	
     18948.30000	      8.03520e-03	
     18983.70000	      8.28240e-03	
     19019.10000	      8.40933e-03	
     19054.40000	      7.92017e-03	
     19089.60000	      6.93633e-03	
     19124.80000	      5.08463e-03	
     19160.00000	      6.13670e-03	
     19195.10000	      7.58050e-03	
     19230.10000	      6.41529e-03	
     19265.10000	      4.89257e-03	
     19300.10000	      4.53773e-03	
     19335.00000	      2.61735e-03	
     19369.80000	      3.17455e-03	
     19404.60000	      3.61940e-03	
     19439.40000	      3.59061e-03	
     19474.10000	      3.10689e-03	
     19508.70000	      3.90441e-03	
     19543.30000	      3.40767e-03	
     19577.80000	      3.63233e-03	
     19612.30000	      2.89412e-03	
     19646.80000	      4.09235e-03	
     19681.20000	      3.75000e-03	
     19715.50000	      5.88133e-03	
     19749.80000	      5.56027e-03	
     19784.10000	      6.10232e-03	
     19818.30000	      5.91343e-03	
     19852.50000	      5.81798e-03	
     19886.60000	      6.58483e-03	
     19920.60000	      6.18407e-03	
     19954.70000	      7.02973e-03	
     19988.60000	      7.50733e-03	
     20022.60000	      8.25625e-03	
     20056.40000	      7.80658e-03	
     20090.30000	      6.73312e-03	
     20124.10000	      8.78356e-03	
     20157.80000	      8.30968e-03	
     20191.50000	      9.04984e-03	
     20225.10000	      9.75453e-03	
     20258.70000	      1.01539e-02	
     20292.30000	      1.00804e-02	
     20325.80000	      1.10056e-02	
     20359.30000	      1.21588e-02	
     20392.70000	      1.20958e-02	
     20426.10000	      1.15883e-02	
     20459.40000	      1.31895e-02	
     20492.70000	      1.29311e-02	
     20525.90000	      1.44189e-02	
     20559.10000	      1.25054e-02	
     20592.20000	      1.36570e-02	
     20625.30000	      1.43615e-02	
     20658.40000	      1.46675e-02	
     20691.40000	      1.41727e-02	
     20724.40000	      1.37903e-02	
     20757.30000	      1.39850e-02	
     20790.20000	      1.43057e-02	
     20823.00000	      1.51745e-02	
     20855.80000	      1.46423e-02	
     20888.50000	      1.52941e-02	
     20921.20000	      1.42313e-02	
     20953.90000	      1.46646e-02	
     20986.50000	      1.41764e-02	
     21019.00000	      1.36864e-02	
     21051.60000	      1.40249e-02	
     21084.00000	      1.34770e-02	
     21116.40000	      1.34530e-02	
     21148.80000	      1.35778e-02	
     21181.20000	      1.32552e-02	
     21213.40000	      1.24048e-02	
     21245.70000	      1.27113e-02	
     21277.90000	      1.21934e-02	
     21310.00000	      1.16127e-02	
     21342.10000	      1.17410e-02	
     21374.20000	      1.18703e-02	
     21406.20000	      1.16840e-02	
     21438.20000	      1.08344e-02	
     21470.10000	      1.10925e-02	
     21501.90000	      1.10387e-02	
     21533.80000	      9.58807e-03	
     21565.50000	      9.49768e-03	
     21597.30000	      9.24725e-03	
     21628.90000	      8.18636e-03	
     21660.60000	      8.65195e-03	
     21692.20000	      8.61455e-03	
     21723.70000	      7.87771e-03	
     21755.20000	      7.26513e-03	
     21786.60000	      7.61645e-03	
     21818.00000	      7.12400e-03	
     21849.40000	      7.31948e-03	
     21880.70000	      5.75170e-03	
     21911.90000	      5.48713e-03	
     21943.10000	      4.56626e-03	
     21974.30000	      3.87403e-03	
     22005.40000	      2.43138e-03	
     22036.40000	      1.63753e-03	
     22067.40000	      2.12352e-03	
     22098.40000	      1.95612e-03	
     22129.30000	      2.11483e-03	
     22160.20000	      2.56384e-03	
     22191.00000	      2.60654e-03	
     22221.70000	      2.50244e-03	
     22252.40000	      2.67332e-03	
     22283.10000	      2.92591e-03	
     22313.70000	      2.72674e-03	
     22344.20000	      1.36195e-03	
     22374.70000	      2.16342e-03	
     22405.20000	      2.42021e-03	
     22435.60000	      1.38842e-03	
     22465.90000	      1.54027e-03	
     22496.20000	      1.70170e-03	
     22526.50000	      1.22835e-03	
     22556.70000	      8.02493e-04	
     22586.80000	      9.49552e-04	
     22616.90000	      1.16260e-03	
     22647.00000	      1.66583e-03	
     22676.90000	      1.17163e-03	
     22706.90000	      1.11940e-03	
     22736.80000	      1.41263e-03	
     22766.60000	      1.91149e-03	
     22796.40000	      1.78407e-03	
     22826.10000	      2.26161e-03	
     22855.80000	      1.42095e-03	
     22885.40000	      1.84066e-03	
     22915.00000	      9.55082e-04	
     22944.50000	      9.22166e-04	
     22974.00000	      1.83925e-03	
     23003.40000	      1.32254e-03	
     23032.70000	      1.21041e-03	
     23062.10000	      1.35028e-03	
     23091.30000	      1.31975e-03	
     23120.50000	      2.06363e-03	
     23149.70000	      2.40979e-03	
     23178.80000	      1.43618e-03	
     23207.90000	      1.20407e-03	
     23236.90000	      6.23037e-04	
     23265.80000	      5.90713e-04	
     23294.70000	      5.24055e-04	
     23323.60000	      2.48244e-05	
     23352.40000	      6.13474e-04	
     23381.20000	      1.51533e-03	
     23409.90000	      4.53247e-04	
     23438.50000	      6.97645e-04	
     23467.10000	      4.67188e-04	
     23495.70000	      7.95185e-04	
     23524.20000	      1.47367e-03	
     23552.70000	      1.72253e-03	
     23581.10000	      9.42611e-04	
     23609.50000	      7.21084e-04	
     23637.80000	      7.65095e-04	
     23666.10000	      2.29816e-03	
     23694.40000	      6.66060e-04	
     23722.60000	      7.22471e-04	
     23750.70000	     -3.68689e-04	
     23778.90000	      1.85828e-03	
     23806.90000	      7.54269e-04	
     23835.00000	      1.62391e-03	
     23863.00000	      1.96489e-03	
     23890.90000	      8.54984e-04	
     23918.90000	      1.86760e-03	
     23946.70000	      1.66026e-03	
     23974.60000	      6.59432e-04	
     24002.40000	      1.80316e-03	
     24030.20000	      1.47028e-03	
     24058.00000	      1.55485e-03	
     24085.70000	      2.29653e-03	
     24113.40000	      8.79592e-04	
     24141.00000	      1.72168e-03	
     24168.70000	      1.17649e-03	
     24196.30000	      1.78410e-03	
     24223.90000	      1.63759e-03	
     24251.40000	      2.02183e-03	
     24279.00000	      1.47985e-03	
     24306.50000	      2.31105e-03	
     24334.00000	      6.64646e-04	
     24361.50000	      5.23446e-04	
     24389.00000	      2.94352e-03	
     24416.50000	      3.12206e-03	
     24443.90000	      3.95584e-03	
     24471.40000	      3.61546e-03	
     24498.80000	      2.65369e-03	
     24526.20000	      2.91477e-03	
     24553.70000	      2.16707e-03	
     24581.10000	      2.48196e-03	
     24608.60000	      1.36809e-03	
     24636.00000	      1.29904e-03	
     24663.50000	      2.66250e-03	
     24690.90000	      2.14846e-03	
     24718.40000	      3.27826e-03	
     24745.90000	      4.01658e-03	
     24773.40000	      2.52993e-03	
     24800.90000	      2.09432e-03	
     24828.50000	      1.86364e-03	
     24856.10000	      1.40054e-03	
     24883.70000	      4.11321e-03	
     24911.30000	      1.85175e-03	
     24939.00000	     -2.39410e-04	
     24966.70000	     -7.38268e-04	
     24994.50000	      5.41305e-03	
     25022.30000	     -1.05973e-04	
     25050.10000	      2.00957e-03	
     25078.10000	      2.09527e-03	
     25106.00000	      2.24320e-03	
     25134.10000	      2.85772e-03	
     25162.20000	      7.00106e-04	
     25190.30000	     -3.00342e-03	
     25218.60000	     -3.64339e-03	
     25246.90000	      2.49785e-03	
     25275.30000	      9.90610e-04	
     25303.80000	     -1.29226e-02	
     25332.40000	      9.18100e-03	
     25361.10000	      1.78489e-02	
     25389.80000	     -8.26057e-04	
     25418.70000	     -1.06518e-02	
     25447.70000	     -6.22969e-03	
     25476.80000	      4.47930e-02	
     25506.10000	      3.94498e-02	
     25535.50000	     -9.48138e-03	
     25565.00000	     -1.02376e-02	
     25594.60000	      2.19319e-02	
     25624.40000	      9.15364e-04	
     25654.30000	     -1.30041e-02	
     25684.40000	     -3.47691e-02	
#time:0.015769
