# The SpeX Prism Spectral Libraries
# spty = NIR:T4  (Spectral type)
#
#     WAVELENGTH	#            FLUX	
#     (ANGSTROM)	#   (ERG/CM2/S/A)	
################	#################	
      6563.33000	      1.26624e-02	
      6585.23000	      8.45554e-03	
      6607.06000	      1.23976e-02	
      6628.80000	      4.84189e-03	
      6650.48000	      9.30148e-03	
      6672.11000	      2.34201e-02	
      6693.69000	      4.77275e-03	
      6715.23000	      1.12788e-02	
      6736.74000	      1.48737e-02	
      6758.22000	      5.60781e-03	
      6779.70000	     -2.69853e-03	
      6801.17000	      1.96731e-03	
      6822.63000	     -2.08528e-03	
      6844.11000	      1.00197e-03	
      6865.61000	      2.08364e-03	
      6887.13000	      1.21192e-02	
      6908.68000	      1.01796e-03	
      6930.27000	     -7.48999e-03	
      6951.90000	      1.08937e-03	
      6973.59000	      3.87878e-03	
      6995.33000	      7.43155e-03	
      7017.13000	     -1.95196e-03	
      7039.00000	     -2.24061e-03	
      7060.95000	      8.45537e-03	
      7082.98000	      7.18146e-03	
      7105.09000	      6.40516e-03	
      7127.29000	      5.55324e-03	
      7149.59000	      7.83187e-03	
      7172.00000	      6.28675e-04	
      7194.50000	     -8.91821e-04	
      7217.12000	      2.24066e-03	
      7239.85000	     -2.57631e-04	
      7262.71000	     -2.26701e-03	
      7285.68000	      1.95967e-03	
      7308.79000	      1.48006e-03	
      7332.02000	      8.64307e-04	
      7355.39000	      1.56210e-03	
      7378.90000	     -8.55615e-04	
      7402.55000	     -3.47525e-03	
      7426.35000	     -3.04494e-03	
      7450.30000	     -2.13932e-03	
      7474.40000	      3.01221e-03	
      7498.66000	      2.29911e-04	
      7523.07000	      2.98473e-03	
      7547.65000	     -2.43247e-03	
      7572.39000	     -7.89551e-05	
      7597.30000	      4.13637e-04	
      7622.37000	      1.76858e-03	
      7647.62000	     -4.72974e-03	
      7673.04000	      2.58285e-03	
      7698.63000	      2.19853e-03	
      7724.40000	     -2.27005e-03	
      7750.36000	     -2.44038e-03	
      7776.49000	     -5.23054e-04	
      7802.80000	     -1.78338e-03	
      7829.30000	     -7.23242e-04	
      7855.99000	     -2.63196e-04	
      7882.86000	     -3.48809e-03	
      7909.92000	      2.31857e-03	
      7937.17000	     -6.66575e-04	
      7964.61000	      6.35425e-04	
      7992.25000	      1.89576e-03	
      8020.07000	      4.88428e-04	
      8048.09000	      4.31782e-04	
      8076.30000	      4.91705e-04	
      8104.71000	      9.28287e-05	
      8133.31000	     -2.35992e-03	
      8162.11000	     -9.76523e-04	
      8191.11000	     -2.15903e-03	
      8220.30000	      1.49948e-03	
      8249.69000	     -2.25337e-03	
      8279.27000	      1.05095e-03	
      8309.06000	      2.58276e-04	
      8339.04000	      2.89068e-04	
      8369.21000	      1.96897e-03	
      8399.59000	      2.37693e-03	
      8430.16000	      9.22679e-04	
      8460.93000	      3.58952e-03	
      8491.89000	      4.54829e-03	
      8523.05000	      3.12724e-03	
      8554.40000	      1.92121e-03	
      8585.95000	      4.80563e-03	
      8617.70000	      3.09032e-03	
      8649.64000	      2.65328e-03	
      8681.77000	      6.95475e-03	
      8714.09000	      4.86336e-03	
      8746.61000	      3.77932e-03	
      8779.32000	      5.56112e-03	
      8812.21000	      8.00395e-03	
      8845.30000	      7.42158e-03	
      8878.57000	      7.89394e-03	
      8912.04000	      7.55691e-03	
      8945.68000	      8.37643e-03	
      8979.52000	      1.06726e-02	
      9013.53000	      1.03411e-02	
      9047.73000	      1.00525e-02	
      9082.11000	      1.11292e-02	
      9116.67000	      1.21065e-02	
      9151.41000	      1.29288e-02	
      9186.33000	      1.43232e-02	
      9221.42000	      1.43098e-02	
      9256.69000	      1.51694e-02	
      9292.13000	      1.34024e-02	
      9327.74000	      1.47644e-02	
      9363.52000	      1.64389e-02	
      9399.47000	      1.83882e-02	
      9435.59000	      1.94546e-02	
      9471.87000	      2.04782e-02	
      9508.32000	      2.25165e-02	
      9544.93000	      2.21075e-02	
      9581.70000	      2.11796e-02	
      9618.62000	      2.42721e-02	
      9655.71000	      2.58127e-02	
      9692.95000	      2.77296e-02	
      9730.34000	      2.89340e-02	
      9767.88000	      3.11503e-02	
      9805.58000	      3.20550e-02	
      9843.42000	      3.41083e-02	
      9881.40000	      3.21215e-02	
      9919.53000	      3.19984e-02	
      9957.81000	      3.01513e-02	
      9996.22000	      3.08682e-02	
     10034.80000	      3.35047e-02	
     10073.50000	      3.51475e-02	
     10112.30000	      3.67526e-02	
     10151.20000	      3.76749e-02	
     10190.30000	      4.17250e-02	
     10229.50000	      4.50953e-02	
     10268.90000	      4.61130e-02	
     10308.30000	      4.83575e-02	
     10347.90000	      5.13328e-02	
     10387.60000	      5.43996e-02	
     10427.40000	      5.52470e-02	
     10467.40000	      5.86054e-02	
     10507.40000	      6.16011e-02	
     10547.60000	      6.13135e-02	
     10587.90000	      6.17936e-02	
     10628.30000	      6.40496e-02	
     10668.70000	      6.59758e-02	
     10709.30000	      6.87754e-02	
     10750.00000	      6.87446e-02	
     10790.80000	      7.20341e-02	
     10831.70000	      7.24582e-02	
     10872.70000	      7.03549e-02	
     10913.80000	      6.65603e-02	
     10954.90000	      5.88890e-02	
     10996.20000	      5.55187e-02	
     11037.50000	      5.00654e-02	
     11078.90000	      4.56088e-02	
     11120.50000	      4.03842e-02	
     11162.00000	      3.89205e-02	
     11203.70000	      3.97833e-02	
     11245.50000	      4.12925e-02	
     11287.30000	      4.16154e-02	
     11329.20000	      3.83483e-02	
     11371.10000	      3.63503e-02	
     11413.10000	      3.54680e-02	
     11455.20000	      3.81430e-02	
     11497.40000	      3.94368e-02	
     11539.60000	      4.06291e-02	
     11581.90000	      3.76104e-02	
     11624.20000	      3.59867e-02	
     11666.60000	      3.57655e-02	
     11709.10000	      3.39351e-02	
     11751.60000	      3.52079e-02	
     11794.10000	      4.02514e-02	
     11836.70000	      4.52356e-02	
     11879.30000	      5.10547e-02	
     11922.00000	      5.49646e-02	
     11964.70000	      5.77215e-02	
     12007.50000	      6.20093e-02	
     12050.30000	      6.43277e-02	
     12093.10000	      6.86872e-02	
     12136.00000	      7.39394e-02	
     12178.90000	      7.81709e-02	
     12221.80000	      8.16370e-02	
     12264.80000	      8.34032e-02	
     12307.80000	      8.49183e-02	
     12350.80000	      8.54576e-02	
     12393.90000	      8.57497e-02	
     12436.90000	      8.61428e-02	
     12480.00000	      8.73240e-02	
     12523.10000	      8.99659e-02	
     12566.20000	      9.47105e-02	
     12609.30000	      9.99137e-02	
     12652.50000	      1.03849e-01	
     12695.60000	      1.03759e-01	
     12738.80000	      1.06543e-01	
     12781.90000	      1.02076e-01	
     12825.10000	      9.96747e-02	
     12868.30000	      9.88617e-02	
     12911.50000	      9.80625e-02	
     12954.70000	      9.67180e-02	
     12997.80000	      9.58313e-02	
     13041.00000	      9.45143e-02	
     13084.20000	      9.18887e-02	
     13127.40000	      8.88774e-02	
     13170.50000	      8.47564e-02	
     13213.70000	      8.04006e-02	
     13256.80000	      6.73496e-02	
     13300.00000	      4.93092e-02	
     13343.10000	      3.19245e-02	
     13386.20000	      1.81505e-02	
     13429.30000	      1.18617e-02	
     13472.40000	      8.98038e-03	
     13515.40000	      7.84795e-03	
     13558.50000	      7.27063e-03	
     13601.50000	      7.26602e-03	
     13644.50000	      5.73306e-03	
     13687.40000	      7.33459e-03	
     13730.40000	      1.06780e-02	
     13773.30000	      1.27498e-02	
     13816.20000	      1.29799e-02	
     13859.10000	      1.00878e-02	
     13901.90000	      9.42542e-03	
     13944.70000	      1.05122e-02	
     13987.50000	      7.73818e-03	
     14030.30000	      1.02778e-02	
     14073.00000	      8.37536e-03	
     14115.60000	      1.09502e-02	
     14158.30000	      9.15465e-03	
     14200.90000	      7.57739e-03	
     14243.50000	      8.11097e-03	
     14286.00000	      8.07553e-03	
     14328.50000	      8.29716e-03	
     14370.90000	      8.38153e-03	
     14413.30000	      1.01014e-02	
     14455.70000	      1.03225e-02	
     14498.00000	      1.24391e-02	
     14540.30000	      1.29556e-02	
     14582.50000	      1.47917e-02	
     14624.70000	      1.48319e-02	
     14666.80000	      1.58181e-02	
     14708.90000	      1.51617e-02	
     14750.90000	      1.75643e-02	
     14792.90000	      1.59701e-02	
     14834.90000	      1.81573e-02	
     14876.80000	      2.03576e-02	
     14918.60000	      2.13745e-02	
     14960.40000	      2.26944e-02	
     15002.10000	      2.26557e-02	
     15043.80000	      2.55082e-02	
     15085.40000	      2.54235e-02	
     15127.00000	      2.87227e-02	
     15168.50000	      3.09808e-02	
     15210.00000	      3.25501e-02	
     15251.40000	      3.58648e-02	
     15292.70000	      3.85735e-02	
     15334.00000	      4.10323e-02	
     15375.20000	      4.19596e-02	
     15416.40000	      4.63518e-02	
     15457.50000	      4.80273e-02	
     15498.60000	      5.01299e-02	
     15539.60000	      5.40106e-02	
     15580.50000	      5.48573e-02	
     15621.40000	      5.61455e-02	
     15662.20000	      5.74084e-02	
     15702.90000	      5.99698e-02	
     15743.60000	      6.23605e-02	
     15784.30000	      6.45068e-02	
     15824.80000	      6.37839e-02	
     15865.30000	      6.38096e-02	
     15905.80000	      6.25964e-02	
     15946.10000	      6.35878e-02	
     15986.40000	      6.16956e-02	
     16026.70000	      5.95670e-02	
     16066.90000	      5.47282e-02	
     16107.00000	      5.01736e-02	
     16147.10000	      4.56458e-02	
     16187.00000	      4.16723e-02	
     16227.00000	      3.78876e-02	
     16266.80000	      3.87510e-02	
     16306.60000	      3.38546e-02	
     16346.40000	      3.42036e-02	
     16386.00000	      3.45756e-02	
     16425.60000	      3.53825e-02	
     16465.20000	      3.74042e-02	
     16504.60000	      3.86000e-02	
     16544.00000	      4.03949e-02	
     16583.40000	      4.03397e-02	
     16622.70000	      3.78011e-02	
     16661.90000	      3.34144e-02	
     16701.00000	      2.98504e-02	
     16740.10000	      2.84054e-02	
     16779.10000	      2.94937e-02	
     16818.00000	      3.17608e-02	
     16856.90000	      3.26767e-02	
     16895.70000	      3.35787e-02	
     16934.50000	      3.28348e-02	
     16973.20000	      3.15621e-02	
     17011.80000	      3.20680e-02	
     17050.30000	      2.98004e-02	
     17088.80000	      3.00536e-02	
     17127.20000	      2.91630e-02	
     17165.60000	      3.06326e-02	
     17203.90000	      3.02893e-02	
     17242.10000	      3.08052e-02	
     17280.30000	      2.97957e-02	
     17318.40000	      2.71927e-02	
     17356.40000	      2.44911e-02	
     17394.40000	      2.47096e-02	
     17432.30000	      2.31045e-02	
     17470.10000	      2.17840e-02	
     17507.90000	      2.11524e-02	
     17545.60000	      1.94751e-02	
     17583.30000	      1.92818e-02	
     17620.90000	      1.86354e-02	
     17658.40000	      1.77293e-02	
     17695.90000	      1.67059e-02	
     17733.30000	      1.53216e-02	
     17770.60000	      1.46871e-02	
     17807.90000	      1.34245e-02	
     17845.10000	      1.25545e-02	
     17882.30000	      1.36927e-02	
     17919.30000	      1.15837e-02	
     17956.40000	      1.30269e-02	
     17993.30000	      1.10237e-02	
     18030.30000	      1.09104e-02	
     18067.10000	      1.23783e-02	
     18103.90000	      1.06557e-02	
     18140.60000	      1.27030e-02	
     18177.30000	      1.34036e-02	
     18213.90000	      1.24663e-02	
     18250.50000	      1.24289e-02	
     18287.00000	      1.32226e-02	
     18323.40000	      1.23208e-02	
     18359.80000	      1.19175e-02	
     18396.10000	      1.31933e-02	
     18432.40000	      1.21291e-02	
     18468.60000	      1.27311e-02	
     18504.70000	      1.06624e-02	
     18540.80000	      1.12425e-02	
     18576.80000	      7.26331e-03	
     18612.80000	      8.91333e-03	
     18648.70000	      9.19620e-03	
     18684.60000	      8.55457e-03	
     18720.40000	      9.71725e-03	
     18756.20000	      1.11638e-02	
     18791.90000	      1.23396e-02	
     18827.50000	      1.40380e-02	
     18863.10000	      1.29390e-02	
     18898.70000	      1.23439e-02	
     18934.10000	      1.41128e-02	
     18969.60000	      1.73291e-02	
     19005.00000	      1.49642e-02	
     19040.30000	      1.60759e-02	
     19075.60000	      1.66354e-02	
     19110.80000	      1.77506e-02	
     19146.00000	      1.81433e-02	
     19181.10000	      1.66093e-02	
     19216.10000	      1.64660e-02	
     19251.20000	      1.44510e-02	
     19286.10000	      1.20100e-02	
     19321.00000	      1.08328e-02	
     19355.90000	      1.16356e-02	
     19390.70000	      1.00724e-02	
     19425.50000	      9.66887e-03	
     19460.20000	      9.79318e-03	
     19494.90000	      1.00658e-02	
     19529.50000	      1.07028e-02	
     19564.00000	      1.03921e-02	
     19598.50000	      1.02814e-02	
     19633.00000	      1.02969e-02	
     19667.40000	      1.06958e-02	
     19701.80000	      1.10051e-02	
     19736.10000	      1.09214e-02	
     19770.40000	      1.05089e-02	
     19804.60000	      1.08337e-02	
     19838.80000	      1.24591e-02	
     19872.90000	      1.16141e-02	
     19907.00000	      1.25656e-02	
     19941.10000	      1.19909e-02	
     19975.10000	      1.34515e-02	
     20009.00000	      1.47634e-02	
     20042.90000	      1.41310e-02	
     20076.70000	      1.47465e-02	
     20110.50000	      1.52047e-02	
     20144.30000	      1.44509e-02	
     20178.00000	      1.65716e-02	
     20211.70000	      1.67546e-02	
     20245.30000	      1.71433e-02	
     20278.90000	      1.81514e-02	
     20312.40000	      1.78152e-02	
     20345.90000	      1.83511e-02	
     20379.30000	      1.94611e-02	
     20412.70000	      2.10521e-02	
     20446.10000	      2.12135e-02	
     20479.40000	      2.17751e-02	
     20512.60000	      2.16332e-02	
     20545.80000	      2.26024e-02	
     20579.00000	      2.24281e-02	
     20612.10000	      2.32209e-02	
     20645.20000	      2.33080e-02	
     20678.20000	      2.40190e-02	
     20711.20000	      2.40755e-02	
     20744.10000	      2.33877e-02	
     20777.00000	      2.32959e-02	
     20809.90000	      2.44317e-02	
     20842.70000	      2.45037e-02	
     20875.50000	      2.42382e-02	
     20908.20000	      2.38359e-02	
     20940.80000	      2.42065e-02	
     20973.50000	      2.38776e-02	
     21006.00000	      2.41745e-02	
     21038.60000	      2.37381e-02	
     21071.10000	      2.44828e-02	
     21103.50000	      2.39382e-02	
     21135.90000	      2.40310e-02	
     21168.20000	      2.39969e-02	
     21200.50000	      2.37372e-02	
     21232.80000	      2.28758e-02	
     21265.00000	      2.22545e-02	
     21297.20000	      2.23916e-02	
     21329.30000	      2.28186e-02	
     21361.40000	      2.21661e-02	
     21393.40000	      2.16950e-02	
     21425.40000	      2.11708e-02	
     21457.30000	      2.08531e-02	
     21489.20000	      2.21128e-02	
     21521.00000	      2.03072e-02	
     21552.80000	      1.95083e-02	
     21584.60000	      1.88786e-02	
     21616.30000	      1.83836e-02	
     21647.90000	      1.82701e-02	
     21679.50000	      1.87988e-02	
     21711.10000	      1.76188e-02	
     21742.60000	      1.72656e-02	
     21774.10000	      1.69855e-02	
     21805.50000	      1.60226e-02	
     21836.90000	      1.51965e-02	
     21868.20000	      1.49915e-02	
     21899.40000	      1.40376e-02	
     21930.70000	      1.31536e-02	
     21961.80000	      1.22824e-02	
     21993.00000	      9.65853e-03	
     22024.00000	      9.69397e-03	
     22055.10000	      7.05172e-03	
     22086.00000	      7.59266e-03	
     22117.00000	      7.22044e-03	
     22147.80000	      7.65061e-03	
     22178.70000	      8.20238e-03	
     22209.40000	      8.27397e-03	
     22240.20000	      7.79031e-03	
     22270.80000	      8.16592e-03	
     22301.50000	      8.25163e-03	
     22332.00000	      7.51971e-03	
     22362.50000	      7.57289e-03	
     22393.00000	      6.47100e-03	
     22423.40000	      6.61334e-03	
     22453.80000	      6.64734e-03	
     22484.10000	      6.61493e-03	
     22514.40000	      6.58714e-03	
     22544.60000	      6.26493e-03	
     22574.80000	      5.48818e-03	
     22604.90000	      6.56432e-03	
     22634.90000	      5.28040e-03	
     22665.00000	      6.05169e-03	
     22694.90000	      4.97542e-03	
     22724.80000	      5.74933e-03	
     22754.70000	      5.90800e-03	
     22784.50000	      5.29047e-03	
     22814.20000	      5.24786e-03	
     22843.90000	      4.74746e-03	
     22873.60000	      4.87874e-03	
     22903.20000	      4.48603e-03	
     22932.70000	      3.94493e-03	
     22962.20000	      3.91574e-03	
     22991.60000	      4.23778e-03	
     23021.00000	      4.43107e-03	
     23050.30000	      4.11851e-03	
     23079.60000	      5.20324e-03	
     23108.90000	      5.28669e-03	
     23138.00000	      5.32639e-03	
     23167.20000	      4.67998e-03	
     23196.20000	      3.06782e-03	
     23225.30000	      2.99875e-03	
     23254.30000	      3.11630e-03	
     23283.20000	      3.22153e-03	
     23312.10000	      3.77000e-03	
     23340.90000	      3.34531e-03	
     23369.70000	      2.37424e-03	
     23398.40000	      3.76642e-03	
     23427.10000	      3.64381e-03	
     23455.70000	      3.73801e-03	
     23484.30000	      4.07947e-03	
     23512.80000	      3.07639e-03	
     23541.30000	      2.96307e-03	
     23569.80000	      4.01260e-03	
     23598.20000	      4.68731e-03	
     23626.50000	      4.39420e-03	
     23654.80000	      4.02449e-03	
     23683.10000	      5.26333e-03	
     23711.30000	      4.01517e-03	
     23739.50000	      4.23491e-03	
     23767.60000	      2.87638e-03	
     23795.70000	      3.60580e-03	
     23823.80000	      2.90388e-03	
     23851.80000	      3.34689e-03	
     23879.80000	      4.14731e-03	
     23907.70000	      5.50746e-03	
     23935.60000	      4.48118e-03	
     23963.50000	      4.29886e-03	
     23991.30000	      3.81660e-03	
     24019.10000	      4.77258e-03	
     24046.90000	      4.60127e-03	
     24074.60000	      5.05031e-03	
     24102.30000	      5.18077e-03	
     24130.00000	      5.99063e-03	
     24157.60000	      7.01081e-03	
     24185.30000	      5.40108e-03	
     24212.90000	      6.10761e-03	
     24240.40000	      4.71700e-03	
     24268.00000	      5.98521e-03	
     24295.50000	      6.83738e-03	
     24323.00000	      5.63618e-03	
     24350.50000	      6.35781e-03	
     24378.00000	      6.09899e-03	
     24405.50000	      5.22242e-03	
     24432.90000	      4.04864e-03	
     24460.40000	      6.67577e-03	
     24487.80000	      5.22726e-03	
     24515.30000	      7.37221e-03	
     24542.70000	      5.86328e-03	
     24570.20000	      5.62437e-03	
     24597.60000	      6.46839e-03	
     24625.00000	      6.00594e-03	
     24652.50000	      5.57692e-03	
     24679.90000	      4.28114e-03	
     24707.40000	      3.69612e-03	
     24734.90000	      5.69369e-03	
     24762.40000	      5.55581e-03	
     24789.90000	      4.62141e-03	
     24817.50000	      5.94457e-03	
     24845.00000	      4.79681e-03	
     24872.60000	      6.38714e-03	
     24900.30000	      7.25401e-03	
     24927.90000	      3.85363e-03	
     24955.60000	      7.40508e-03	
     24983.40000	      6.80467e-03	
     25011.20000	      9.93857e-03	
     25039.00000	      6.67220e-03	
     25066.90000	      4.48661e-03	
     25094.80000	      7.14916e-03	
     25122.80000	      7.75931e-03	
     25150.90000	      6.34644e-03	
     25179.10000	      1.78936e-03	
     25207.30000	      6.35979e-03	
     25235.60000	      5.55825e-03	
     25263.90000	      1.24930e-02	
     25292.40000	      1.60142e-02	
     25320.90000	      6.75242e-03	
     25349.60000	      1.29253e-02	
     25378.30000	      1.06016e-02	
     25407.20000	     -3.02124e-03	
     25436.10000	      1.34953e-02	
     25465.20000	      1.68302e-02	
     25494.40000	      3.69258e-03	
     25523.70000	      6.95474e-03	
     25553.10000	      2.15603e-02	
     25582.70000	     -6.56703e-03	
#time:0.015551
