# The SpeX Prism Spectral Libraries
# spty = Opt:T8,NIR:T8  (Spectral type)
#
#     WAVELENGTH	#            FLUX	
#     (ANGSTROM)	#   (ERG/CM2/S/A)	
################	#################	
      6564.45000	      1.24866e-02	
      6586.35000	      1.22091e-02	
      6608.17000	     -2.42576e-03	
      6629.91000	      1.26813e-02	
      6651.59000	      5.94683e-04	
      6673.21000	     -5.91039e-03	
      6694.79000	      4.30203e-03	
      6716.32000	      3.49072e-03	
      6737.83000	      1.60971e-02	
      6759.32000	     -7.96637e-04	
      6780.79000	      6.92512e-03	
      6802.26000	      6.35865e-03	
      6823.73000	      6.53097e-03	
      6845.21000	     -3.28928e-03	
      6866.71000	     -2.80459e-04	
      6888.23000	      7.13835e-03	
      6909.78000	      1.71608e-03	
      6931.37000	     -5.02758e-03	
      6953.01000	      5.63121e-03	
      6974.69000	      1.48361e-03	
      6996.43000	      4.47493e-03	
      7018.24000	      3.76953e-03	
      7040.12000	      9.70879e-04	
      7062.07000	     -1.82924e-03	
      7084.10000	      4.21657e-03	
      7106.22000	      9.70990e-03	
      7128.43000	      3.45653e-03	
      7150.73000	      4.78800e-03	
      7173.14000	      8.08517e-03	
      7195.65000	     -2.06032e-03	
      7218.28000	      3.58079e-03	
      7241.01000	     -1.58491e-03	
      7263.87000	     -3.14103e-03	
      7286.86000	      5.28719e-03	
      7309.97000	      6.12882e-03	
      7333.21000	      5.20190e-03	
      7356.59000	      3.70822e-03	
      7380.10000	      4.15980e-03	
      7403.76000	      5.26964e-03	
      7427.57000	      1.16061e-03	
      7451.53000	      3.05217e-03	
      7475.63000	      1.60138e-03	
      7499.90000	      3.04283e-03	
      7524.32000	      9.63873e-07	
      7548.91000	      2.56597e-04	
      7573.65000	     -2.26583e-03	
      7598.57000	      2.87916e-03	
      7623.65000	     -6.29843e-04	
      7648.91000	      1.78721e-04	
      7674.34000	     -1.01102e-03	
      7699.94000	     -2.09260e-03	
      7725.72000	     -8.99294e-05	
      7751.68000	      2.18976e-05	
      7777.82000	      5.84382e-04	
      7804.15000	     -1.04144e-04	
      7830.66000	     -4.69341e-05	
      7857.35000	     -3.00532e-04	
      7884.23000	      6.84148e-04	
      7911.31000	     -6.52768e-04	
      7938.57000	      2.54365e-03	
      7966.02000	     -1.65299e-04	
      7993.66000	      2.19307e-03	
      8021.49000	      7.93024e-04	
      8049.52000	      1.46587e-03	
      8077.75000	     -6.08241e-04	
      8106.16000	      1.48383e-03	
      8134.78000	      1.30833e-03	
      8163.59000	      1.84728e-03	
      8192.59000	      1.85575e-03	
      8221.79000	      1.25271e-03	
      8251.19000	      1.11547e-04	
      8280.79000	      3.29011e-03	
      8310.58000	      1.32920e-03	
      8340.57000	      8.25414e-04	
      8370.76000	      2.36130e-03	
      8401.14000	      6.10660e-04	
      8431.72000	      9.74986e-04	
      8462.50000	      2.12968e-03	
      8493.47000	      5.29261e-04	
      8524.64000	      1.93924e-03	
      8556.01000	      6.27209e-04	
      8587.57000	      3.18470e-03	
      8619.32000	      2.81176e-03	
      8651.27000	      3.42291e-03	
      8683.41000	      2.34245e-03	
      8715.75000	      2.43570e-03	
      8748.27000	      1.82233e-03	
      8780.99000	      2.82515e-03	
      8813.90000	      4.58562e-03	
      8846.99000	      4.09802e-03	
      8880.28000	      4.05446e-03	
      8913.75000	      3.77089e-03	
      8947.40000	      3.64524e-03	
      8981.25000	      4.55731e-03	
      9015.27000	      4.56390e-03	
      9049.48000	      5.42745e-03	
      9083.87000	      5.90947e-03	
      9118.44000	      5.72351e-03	
      9153.19000	      6.72019e-03	
      9188.11000	      6.12605e-03	
      9223.21000	      6.12797e-03	
      9258.49000	      7.04670e-03	
      9293.94000	      3.59102e-03	
      9329.56000	      5.59931e-03	
      9365.35000	      5.30144e-03	
      9401.31000	      5.81128e-03	
      9437.43000	      7.88105e-03	
      9473.72000	      8.09807e-03	
      9510.18000	      7.01055e-03	
      9546.80000	      7.37750e-03	
      9583.57000	      5.85296e-03	
      9620.51000	      7.82546e-03	
      9657.60000	      8.16176e-03	
      9694.85000	      1.15745e-02	
      9732.25000	      1.10383e-02	
      9769.80000	      1.27504e-02	
      9807.50000	      1.45046e-02	
      9845.35000	      1.60741e-02	
      9883.34000	      1.69015e-02	
      9921.48000	      1.85906e-02	
      9959.76000	      2.14102e-02	
      9998.18000	      2.33978e-02	
     10036.70000	      2.54046e-02	
     10075.40000	      2.68979e-02	
     10114.30000	      2.91781e-02	
     10153.20000	      3.18118e-02	
     10192.30000	      3.51308e-02	
     10231.50000	      3.58833e-02	
     10270.90000	      4.02683e-02	
     10310.30000	      4.28079e-02	
     10349.90000	      4.63134e-02	
     10389.60000	      4.99850e-02	
     10429.50000	      5.04775e-02	
     10469.40000	      5.45136e-02	
     10509.50000	      5.84167e-02	
     10549.60000	      5.97183e-02	
     10589.90000	      6.27398e-02	
     10630.30000	      6.48096e-02	
     10670.80000	      6.70027e-02	
     10711.40000	      6.90304e-02	
     10752.10000	      7.11196e-02	
     10792.90000	      7.23657e-02	
     10833.80000	      6.97159e-02	
     10874.80000	      6.28419e-02	
     10915.90000	      4.99814e-02	
     10957.00000	      3.65646e-02	
     10998.30000	      2.84689e-02	
     11039.60000	      1.99940e-02	
     11081.10000	      1.43661e-02	
     11122.60000	      9.37055e-03	
     11164.20000	      6.61069e-03	
     11205.80000	      6.91879e-03	
     11247.60000	      6.64618e-03	
     11289.40000	      6.90341e-03	
     11331.30000	      7.19310e-03	
     11373.30000	      5.45756e-03	
     11415.30000	      4.80880e-03	
     11457.40000	      5.44931e-03	
     11499.50000	      3.59613e-03	
     11541.80000	      4.74010e-03	
     11584.00000	      3.32724e-03	
     11626.40000	      3.84824e-03	
     11668.80000	      5.48902e-03	
     11711.20000	      6.11682e-03	
     11753.70000	      7.17176e-03	
     11796.30000	      9.57728e-03	
     11838.90000	      1.23126e-02	
     11881.50000	      1.43156e-02	
     11924.20000	      1.83855e-02	
     11966.90000	      2.18086e-02	
     12009.70000	      2.72328e-02	
     12052.50000	      3.15340e-02	
     12095.30000	      3.65315e-02	
     12138.20000	      4.25831e-02	
     12181.10000	      4.79729e-02	
     12224.00000	      5.32087e-02	
     12267.00000	      6.02843e-02	
     12310.00000	      6.63828e-02	
     12353.00000	      7.37116e-02	
     12396.00000	      7.83471e-02	
     12439.10000	      8.61383e-02	
     12482.20000	      9.27887e-02	
     12525.30000	      9.95080e-02	
     12568.40000	      1.02767e-01	
     12611.50000	      1.10490e-01	
     12654.70000	      1.10666e-01	
     12697.80000	      1.09798e-01	
     12741.00000	      1.08382e-01	
     12784.10000	      1.02194e-01	
     12827.30000	      9.28503e-02	
     12870.50000	      8.44179e-02	
     12913.70000	      7.81639e-02	
     12956.90000	      7.16186e-02	
     13000.00000	      6.43429e-02	
     13043.20000	      5.70569e-02	
     13086.40000	      5.10280e-02	
     13129.60000	      4.43548e-02	
     13172.70000	      3.77623e-02	
     13215.90000	      3.09149e-02	
     13259.00000	      2.26140e-02	
     13302.20000	      1.37183e-02	
     13345.30000	      6.26666e-03	
     13388.40000	      2.34350e-03	
     13431.50000	      1.69447e-03	
     13474.60000	      1.08040e-03	
     13517.60000	      1.14146e-03	
     13560.60000	     -9.60214e-04	
     13603.70000	     -4.57205e-06	
     13646.70000	     -6.18209e-05	
     13689.60000	      1.26600e-03	
     13732.60000	      8.56239e-04	
     13775.50000	     -2.75992e-04	
     13818.40000	      6.59370e-05	
     13861.30000	     -1.10092e-03	
     13904.10000	      1.52874e-03	
     13946.90000	     -6.55507e-04	
     13989.70000	     -4.25592e-04	
     14032.40000	      1.58329e-03	
     14075.10000	     -3.08183e-04	
     14117.80000	      9.74944e-04	
     14160.50000	      4.36265e-04	
     14203.10000	      6.37741e-04	
     14245.60000	      5.76649e-04	
     14288.10000	      1.22343e-03	
     14330.60000	      1.84941e-03	
     14373.10000	      1.12189e-03	
     14415.50000	      2.05551e-03	
     14457.80000	      2.80951e-03	
     14500.20000	      2.60991e-03	
     14542.40000	      3.46876e-03	
     14584.60000	      4.25469e-03	
     14626.80000	      3.74915e-03	
     14669.00000	      4.86291e-03	
     14711.00000	      3.76286e-03	
     14753.10000	      4.07083e-03	
     14795.10000	      4.60542e-03	
     14837.00000	      6.10970e-03	
     14878.90000	      6.54817e-03	
     14920.70000	      7.54950e-03	
     14962.50000	      8.19461e-03	
     15004.20000	      8.48502e-03	
     15045.90000	      1.04564e-02	
     15087.50000	      1.08239e-02	
     15129.10000	      1.35793e-02	
     15170.60000	      1.47521e-02	
     15212.10000	      1.65554e-02	
     15253.50000	      1.88362e-02	
     15294.80000	      2.02849e-02	
     15336.10000	      2.56048e-02	
     15377.30000	      2.81540e-02	
     15418.50000	      3.10736e-02	
     15459.60000	      3.47930e-02	
     15500.70000	      3.68346e-02	
     15541.70000	      4.04583e-02	
     15582.60000	      4.27724e-02	
     15623.50000	      4.68354e-02	
     15664.30000	      4.98188e-02	
     15705.00000	      5.27143e-02	
     15745.70000	      5.58350e-02	
     15786.30000	      5.77712e-02	
     15826.90000	      5.92104e-02	
     15867.40000	      5.50481e-02	
     15907.80000	      5.34009e-02	
     15948.20000	      4.81762e-02	
     15988.50000	      4.17972e-02	
     16028.70000	      3.15854e-02	
     16068.90000	      2.45780e-02	
     16109.00000	      1.72764e-02	
     16149.10000	      1.27064e-02	
     16189.10000	      1.00597e-02	
     16229.00000	      7.31980e-03	
     16268.90000	      5.92143e-03	
     16308.70000	      6.15988e-03	
     16348.40000	      4.83733e-03	
     16388.10000	      4.85531e-03	
     16427.60000	      4.93522e-03	
     16467.20000	      6.21464e-03	
     16506.60000	      6.68430e-03	
     16546.00000	      6.68243e-03	
     16585.40000	      7.27303e-03	
     16624.70000	      5.71774e-03	
     16663.90000	      4.85815e-03	
     16703.00000	      2.95167e-03	
     16742.10000	      3.48968e-03	
     16781.10000	      4.73864e-03	
     16820.00000	      5.86785e-03	
     16858.90000	      5.95486e-03	
     16897.70000	      5.75634e-03	
     16936.50000	      4.51779e-03	
     16975.10000	      3.68125e-03	
     17013.80000	      3.35701e-03	
     17052.30000	      2.68604e-03	
     17090.80000	      3.22306e-03	
     17129.20000	      4.57246e-03	
     17167.60000	      5.42904e-03	
     17205.80000	      6.29075e-03	
     17244.10000	      6.71146e-03	
     17282.20000	      5.19744e-03	
     17320.30000	      4.31678e-03	
     17358.40000	      4.19852e-03	
     17396.30000	      3.70975e-03	
     17434.20000	      4.32250e-03	
     17472.10000	      4.17881e-03	
     17509.80000	      4.02838e-03	
     17547.60000	      4.57940e-03	
     17585.20000	      4.48676e-03	
     17622.80000	      3.65655e-03	
     17660.30000	      3.54820e-03	
     17697.80000	      3.89416e-03	
     17735.20000	      2.92698e-03	
     17772.50000	      2.82818e-03	
     17809.80000	      2.97279e-03	
     17847.00000	      3.19441e-03	
     17884.10000	      2.57726e-03	
     17921.20000	      2.49121e-03	
     17958.30000	      1.52238e-03	
     17995.20000	      1.22782e-03	
     18032.10000	      9.63876e-04	
     18069.00000	      1.40941e-03	
     18105.80000	      3.21453e-03	
     18142.50000	      1.83620e-03	
     18179.20000	      1.94828e-03	
     18215.80000	      3.15022e-03	
     18252.30000	      1.99111e-03	
     18288.80000	      2.19661e-03	
     18325.20000	      3.97426e-04	
     18361.60000	      1.21860e-03	
     18397.90000	      1.07009e-03	
     18434.20000	     -1.44695e-03	
     18470.40000	      5.04124e-04	
     18506.50000	      2.23381e-03	
     18542.60000	      1.44591e-03	
     18578.70000	      2.02719e-03	
     18614.60000	      1.93324e-03	
     18650.60000	      6.37562e-04	
     18686.40000	      5.75834e-04	
     18722.20000	      4.09830e-03	
     18758.00000	      2.12799e-03	
     18793.70000	      3.23832e-03	
     18829.30000	      4.01704e-03	
     18864.90000	      3.06749e-03	
     18900.50000	      3.40785e-03	
     18936.00000	      3.15967e-03	
     18971.40000	      4.31507e-03	
     19006.80000	      4.24875e-03	
     19042.10000	      3.87028e-03	
     19077.40000	      3.81471e-03	
     19112.60000	      2.63574e-03	
     19147.70000	      4.51366e-03	
     19182.90000	      4.25067e-03	
     19217.90000	      3.73061e-03	
     19252.90000	      3.73756e-03	
     19287.90000	      3.79483e-03	
     19322.80000	      1.62032e-03	
     19357.70000	      1.17522e-03	
     19392.50000	      2.12711e-03	
     19427.20000	      1.64455e-03	
     19462.00000	      2.37394e-03	
     19496.60000	      2.04182e-03	
     19531.20000	      2.11677e-03	
     19565.80000	      1.39948e-03	
     19600.30000	      2.03425e-03	
     19634.80000	      2.84595e-03	
     19669.20000	      3.10676e-03	
     19703.60000	      3.45098e-03	
     19737.90000	      3.29733e-03	
     19772.10000	      3.16433e-03	
     19806.40000	      3.57362e-03	
     19840.50000	      3.99002e-03	
     19874.70000	      4.67751e-03	
     19908.80000	      4.59414e-03	
     19942.80000	      4.93281e-03	
     19976.80000	      5.64771e-03	
     20010.70000	      6.59298e-03	
     20044.60000	      6.00595e-03	
     20078.50000	      7.13405e-03	
     20112.30000	      7.06578e-03	
     20146.00000	      6.68833e-03	
     20179.70000	      8.35402e-03	
     20213.40000	      7.87827e-03	
     20247.00000	      9.50394e-03	
     20280.60000	      1.03194e-02	
     20314.10000	      9.30391e-03	
     20347.60000	      1.00615e-02	
     20381.00000	      9.94018e-03	
     20414.40000	      1.09673e-02	
     20447.80000	      1.08258e-02	
     20481.10000	      1.19628e-02	
     20514.30000	      1.28443e-02	
     20547.50000	      1.11394e-02	
     20580.70000	      1.28331e-02	
     20613.80000	      1.32096e-02	
     20646.90000	      1.36038e-02	
     20679.90000	      1.36883e-02	
     20712.90000	      1.33930e-02	
     20745.80000	      1.30250e-02	
     20778.70000	      1.37477e-02	
     20811.60000	      1.35385e-02	
     20844.40000	      1.33466e-02	
     20877.10000	      1.34283e-02	
     20909.80000	      1.30130e-02	
     20942.50000	      1.31100e-02	
     20975.10000	      1.29491e-02	
     21007.70000	      1.24655e-02	
     21040.20000	      1.22573e-02	
     21072.70000	      1.19415e-02	
     21105.10000	      1.23506e-02	
     21137.50000	      1.11984e-02	
     21169.90000	      1.05649e-02	
     21202.20000	      1.10455e-02	
     21234.40000	      1.03946e-02	
     21266.70000	      9.66272e-03	
     21298.80000	      9.51107e-03	
     21330.90000	      8.55955e-03	
     21363.00000	      8.42643e-03	
     21395.00000	      8.48340e-03	
     21427.00000	      8.19347e-03	
     21458.90000	      7.20295e-03	
     21490.80000	      7.85601e-03	
     21522.70000	      6.34881e-03	
     21554.50000	      6.44560e-03	
     21586.20000	      6.09424e-03	
     21617.90000	      6.00752e-03	
     21649.60000	      5.49840e-03	
     21681.20000	      5.60636e-03	
     21712.70000	      4.76877e-03	
     21744.20000	      5.14608e-03	
     21775.70000	      4.49221e-03	
     21807.10000	      4.05967e-03	
     21838.50000	      3.86609e-03	
     21869.80000	      3.93490e-03	
     21901.00000	      3.27777e-03	
     21932.30000	      2.48923e-03	
     21963.40000	      1.76199e-03	
     21994.50000	      1.05308e-03	
     22025.60000	      5.24327e-04	
     22056.60000	      4.71233e-04	
     22087.60000	      3.79060e-04	
     22118.50000	      3.83552e-04	
     22149.40000	      1.02034e-03	
     22180.20000	      1.19478e-03	
     22211.00000	      8.28933e-04	
     22241.70000	      1.17123e-03	
     22272.40000	      3.91417e-04	
     22303.00000	      4.36793e-04	
     22333.60000	      1.19698e-03	
     22364.10000	      3.61916e-04	
     22394.60000	      4.80494e-04	
     22425.00000	      5.31374e-04	
     22455.40000	      2.19504e-04	
     22485.70000	      2.79183e-04	
     22515.90000	      1.27200e-04	
     22546.10000	      6.55090e-04	
     22576.30000	      5.37240e-04	
     22606.40000	      7.57200e-05	
     22636.50000	      3.34094e-04	
     22666.50000	      2.19178e-04	
     22696.40000	      2.99608e-04	
     22726.30000	      4.13382e-04	
     22756.20000	      4.53393e-04	
     22786.00000	      3.79294e-04	
     22815.70000	      3.23993e-04	
     22845.40000	      2.36823e-04	
     22875.10000	      4.71784e-04	
     22904.70000	      8.78976e-05	
     22934.20000	      3.92900e-04	
     22963.70000	     -6.76693e-05	
     22993.10000	      2.91599e-04	
     23022.50000	      1.22657e-04	
     23051.80000	     -9.04158e-05	
     23081.10000	      2.84050e-04	
     23110.30000	      5.78438e-04	
     23139.50000	      6.64353e-04	
     23168.70000	      3.51027e-04	
     23197.70000	      7.87760e-04	
     23226.80000	     -3.77405e-05	
     23255.70000	      5.77302e-04	
     23284.70000	      4.74849e-04	
     23313.50000	     -9.51681e-05	
     23342.40000	      4.46080e-04	
     23371.10000	     -3.33705e-04	
     23399.90000	     -3.27955e-04	
     23428.50000	      1.61395e-04	
     23457.20000	      1.64339e-04	
     23485.70000	      5.95496e-04	
     23514.30000	      3.62148e-04	
     23542.80000	      3.61614e-05	
     23571.20000	      3.76007e-04	
     23599.60000	     -5.49552e-04	
     23628.00000	      7.63230e-04	
     23656.30000	      5.62576e-04	
     23684.50000	     -3.46162e-04	
     23712.70000	     -1.04517e-04	
     23740.90000	     -1.18535e-04	
     23769.10000	     -9.30271e-04	
     23797.10000	     -4.80310e-05	
     23825.20000	      1.42075e-05	
     23853.20000	     -5.51199e-04	
     23881.20000	      3.85866e-04	
     23909.10000	      5.42311e-04	
     23937.00000	      5.56977e-04	
     23964.90000	      4.28192e-04	
     23992.70000	     -3.85147e-04	
     24020.50000	      2.86483e-04	
     24048.30000	      4.74147e-04	
     24076.00000	      1.18352e-03	
     24103.70000	      5.14891e-04	
     24131.40000	      8.69460e-04	
     24159.00000	      1.15317e-03	
     24186.70000	      8.26068e-04	
     24214.30000	      1.27676e-03	
     24241.80000	      7.74858e-04	
     24269.40000	      5.35943e-04	
     24296.90000	      7.36279e-04	
     24324.40000	     -1.49726e-04	
     24351.90000	      1.73077e-03	
     24379.40000	      6.25469e-04	
     24406.90000	      5.55722e-04	
     24434.30000	      1.15396e-03	
     24461.80000	      1.61913e-03	
     24489.20000	      8.01570e-04	
     24516.70000	      7.34692e-04	
     24544.10000	      7.29835e-04	
     24571.50000	      9.81339e-04	
     24599.00000	      7.22526e-04	
     24626.40000	      1.10321e-03	
     24653.90000	      2.12948e-03	
     24681.30000	      1.36536e-03	
     24708.80000	      3.64431e-04	
     24736.30000	      2.23510e-03	
     24763.80000	      7.37233e-04	
     24791.30000	      1.59511e-03	
     24818.90000	      2.35357e-03	
     24846.40000	      3.67278e-04	
     24874.00000	      1.23102e-03	
     24901.70000	      2.09300e-03	
     24929.30000	      6.67245e-04	
     24957.00000	      2.46739e-03	
     24984.80000	      2.36962e-03	
     25012.60000	      1.81009e-03	
     25040.40000	      1.50420e-03	
     25068.30000	      9.92372e-04	
     25096.30000	      1.45730e-04	
     25124.30000	      2.80199e-03	
     25152.30000	      1.31835e-03	
     25180.50000	      1.56582e-03	
     25208.70000	     -1.47234e-03	
     25237.00000	      1.72211e-03	
     25265.40000	     -4.50914e-04	
     25293.80000	     -1.04167e-03	
     25322.40000	     -2.09374e-04	
     25351.00000	      7.46727e-04	
     25379.80000	      4.15352e-03	
     25408.60000	     -6.29046e-03	
     25437.60000	     -3.82598e-03	
     25466.70000	     -3.19110e-04	
     25495.90000	      2.37371e-03	
     25525.20000	      2.87112e-02	
     25554.60000	     -6.84743e-03	
     25584.20000	     -9.19270e-03	
#time:0.015759
