# The SpeX Prism Spectral Libraries
# spty = Opt:T6,NIR:T5  (Spectral type)
#
#     WAVELENGTH	#            FLUX	
#     (ANGSTROM)	#   (ERG/CM2/S/A)	
################	#################	
      6582.83000	     -6.70128e-03	
      6604.66000	      7.33510e-04	
      6626.42000	     -2.73660e-04	
      6648.11000	      7.52196e-03	
      6669.74000	     -2.61944e-03	
      6691.32000	      1.10484e-04	
      6712.86000	      4.99467e-03	
      6734.38000	      3.79221e-04	
      6755.87000	     -2.81279e-03	
      6777.34000	     -2.91719e-03	
      6798.81000	     -1.80580e-03	
      6820.28000	      3.46611e-04	
      6841.76000	     -1.91002e-03	
      6863.25000	     -3.75289e-03	
      6884.77000	     -2.68540e-03	
      6906.31000	     -1.15648e-03	
      6927.90000	      5.19433e-03	
      6949.52000	      3.49453e-03	
      6971.20000	      5.90484e-03	
      6992.94000	     -1.25601e-03	
      7014.73000	     -9.23279e-04	
      7036.60000	      5.60677e-04	
      7058.54000	     -1.34880e-03	
      7080.55000	      7.51471e-04	
      7102.66000	     -9.12429e-04	
      7124.85000	      1.63581e-03	
      7147.14000	      6.54505e-03	
      7169.53000	     -3.55708e-03	
      7192.03000	     -1.02599e-03	
      7214.63000	      1.02824e-05	
      7237.35000	      5.14930e-04	
      7260.19000	     -2.78021e-03	
      7283.15000	     -1.07187e-03	
      7306.24000	      2.74966e-04	
      7329.46000	      3.04537e-03	
      7352.82000	     -2.21623e-04	
      7376.31000	      6.43468e-04	
      7399.95000	     -2.15219e-03	
      7423.73000	     -3.08271e-03	
      7447.67000	      2.44059e-04	
      7471.75000	     -1.04391e-03	
      7495.99000	     -1.69060e-03	
      7520.39000	      3.32954e-04	
      7544.94000	      1.28963e-03	
      7569.66000	      3.49719e-03	
      7594.55000	     -4.67424e-03	
      7619.61000	      9.13399e-04	
      7644.84000	     -1.09660e-03	
      7670.24000	      3.83840e-04	
      7695.81000	      4.01939e-03	
      7721.56000	      1.61526e-03	
      7747.50000	      1.98551e-03	
      7773.61000	      2.13984e-04	
      7799.90000	     -8.25331e-04	
      7826.38000	      7.07895e-04	
      7853.05000	      2.26728e-03	
      7879.90000	     -2.77734e-04	
      7906.94000	      2.20072e-03	
      7934.17000	     -5.52251e-04	
      7961.59000	     -1.89900e-03	
      7989.20000	      1.52532e-03	
      8017.01000	     -1.13277e-03	
      8045.00000	      1.83237e-05	
      8073.20000	     -1.64762e-04	
      8101.58000	      1.16719e-03	
      8130.16000	      2.11786e-05	
      8158.94000	      3.51300e-03	
      8187.91000	      2.45398e-03	
      8217.08000	      4.58007e-04	
      8246.45000	      8.60308e-04	
      8276.02000	      8.22185e-04	
      8305.78000	      6.69896e-04	
      8335.73000	      2.04510e-03	
      8365.89000	      3.23562e-03	
      8396.24000	      2.50407e-03	
      8426.79000	      3.38099e-03	
      8457.54000	      3.28503e-03	
      8488.48000	      2.10657e-03	
      8519.62000	      3.06223e-03	
      8550.95000	      3.94779e-03	
      8582.48000	      4.36116e-03	
      8614.20000	      5.58695e-03	
      8646.12000	      5.28199e-03	
      8678.23000	      5.07376e-03	
      8710.54000	      5.29246e-03	
      8743.03000	      5.68262e-03	
      8775.72000	      5.58453e-03	
      8808.59000	      6.03118e-03	
      8841.66000	      6.81882e-03	
      8874.91000	      7.29393e-03	
      8908.35000	      7.09972e-03	
      8941.98000	      7.52453e-03	
      8975.79000	      9.72095e-03	
      9009.79000	      1.06866e-02	
      9043.97000	      9.40472e-03	
      9078.33000	      1.07379e-02	
      9112.87000	      1.23329e-02	
      9147.59000	      1.40696e-02	
      9182.48000	      1.27808e-02	
      9217.56000	      1.27059e-02	
      9252.81000	      1.16902e-02	
      9288.23000	      1.09940e-02	
      9323.82000	      1.08069e-02	
      9359.58000	      1.28598e-02	
      9395.52000	      1.34806e-02	
      9431.61000	      1.53563e-02	
      9467.88000	      1.64275e-02	
      9504.31000	      1.64821e-02	
      9540.90000	      1.71239e-02	
      9577.65000	      1.73525e-02	
      9614.56000	      1.92994e-02	
      9651.63000	      2.13047e-02	
      9688.85000	      2.38653e-02	
      9726.22000	      2.53123e-02	
      9763.75000	      2.70749e-02	
      9801.43000	      2.88964e-02	
      9839.25000	      2.86537e-02	
      9877.23000	      2.81793e-02	
      9915.34000	      2.78070e-02	
      9953.60000	      2.97574e-02	
      9992.00000	      3.21768e-02	
     10030.50000	      3.33793e-02	
     10069.20000	      3.65948e-02	
     10108.00000	      3.68134e-02	
     10147.00000	      4.01118e-02	
     10186.00000	      4.26219e-02	
     10225.20000	      4.49729e-02	
     10264.50000	      4.77101e-02	
     10304.00000	      4.99565e-02	
     10343.60000	      5.29136e-02	
     10383.30000	      5.64520e-02	
     10423.10000	      5.88127e-02	
     10463.00000	      6.10813e-02	
     10503.00000	      6.32043e-02	
     10543.20000	      6.52158e-02	
     10583.40000	      6.64506e-02	
     10623.80000	      6.87600e-02	
     10664.30000	      7.03593e-02	
     10704.90000	      7.20617e-02	
     10745.50000	      7.50337e-02	
     10786.30000	      7.49709e-02	
     10827.20000	      7.59117e-02	
     10868.20000	      7.10460e-02	
     10909.20000	      6.49602e-02	
     10950.40000	      5.41944e-02	
     10991.60000	      4.67828e-02	
     11033.00000	      4.09780e-02	
     11074.40000	      3.31489e-02	
     11115.90000	      2.92874e-02	
     11157.50000	      2.56943e-02	
     11199.10000	      2.69805e-02	
     11240.90000	      2.77985e-02	
     11282.70000	      2.64452e-02	
     11324.60000	      2.64513e-02	
     11366.50000	      2.46036e-02	
     11408.50000	      2.57225e-02	
     11450.60000	      2.61823e-02	
     11492.80000	      2.54154e-02	
     11535.00000	      2.43985e-02	
     11577.20000	      2.49852e-02	
     11619.60000	      2.35499e-02	
     11662.00000	      2.26086e-02	
     11704.40000	      2.42892e-02	
     11746.90000	      2.57718e-02	
     11789.40000	      3.11697e-02	
     11832.00000	      3.59989e-02	
     11874.60000	      4.15033e-02	
     11917.30000	      4.48032e-02	
     11960.00000	      4.94203e-02	
     12002.80000	      5.42745e-02	
     12045.60000	      5.79403e-02	
     12088.40000	      6.26751e-02	
     12131.30000	      6.74346e-02	
     12174.20000	      7.18440e-02	
     12217.10000	      7.66526e-02	
     12260.10000	      7.91936e-02	
     12303.10000	      8.22533e-02	
     12346.10000	      8.36475e-02	
     12389.10000	      8.40347e-02	
     12432.20000	      8.43830e-02	
     12475.30000	      8.71499e-02	
     12518.40000	      9.22305e-02	
     12561.50000	      9.90374e-02	
     12604.60000	      1.02369e-01	
     12647.70000	      1.05235e-01	
     12690.90000	      1.06047e-01	
     12734.00000	      1.06601e-01	
     12777.20000	      1.03891e-01	
     12820.40000	      9.99944e-02	
     12863.60000	      9.80711e-02	
     12906.70000	      9.44633e-02	
     12949.90000	      9.20595e-02	
     12993.10000	      8.97529e-02	
     13036.30000	      8.48243e-02	
     13079.40000	      8.25779e-02	
     13122.60000	      7.77572e-02	
     13165.80000	      7.15267e-02	
     13208.90000	      6.18602e-02	
     13252.10000	      4.79590e-02	
     13295.20000	      2.92916e-02	
     13338.30000	      1.69578e-02	
     13381.50000	      8.20478e-03	
     13424.60000	      4.37458e-03	
     13467.60000	      3.19797e-03	
     13510.70000	      2.99384e-03	
     13553.70000	      2.32920e-03	
     13596.80000	      2.62782e-03	
     13639.80000	      2.61807e-03	
     13682.70000	      2.75277e-03	
     13725.70000	      3.96427e-03	
     13768.60000	      4.98690e-03	
     13811.50000	      4.67569e-03	
     13854.40000	      3.78576e-03	
     13897.20000	      4.01694e-03	
     13940.00000	      3.59059e-03	
     13982.80000	      2.98331e-03	
     14025.60000	      3.28400e-03	
     14068.30000	      3.08703e-03	
     14111.00000	      2.74610e-03	
     14153.60000	      3.54237e-03	
     14196.20000	      2.71984e-03	
     14238.80000	      2.81868e-03	
     14281.30000	      3.38661e-03	
     14323.80000	      4.19317e-03	
     14366.30000	      4.76756e-03	
     14408.70000	      4.44939e-03	
     14451.00000	      6.01849e-03	
     14493.30000	      6.40051e-03	
     14535.60000	      8.41200e-03	
     14577.90000	      8.85863e-03	
     14620.10000	      9.56556e-03	
     14662.20000	      8.61672e-03	
     14704.30000	      8.99422e-03	
     14746.30000	      1.05349e-02	
     14788.30000	      1.20321e-02	
     14830.30000	      1.23790e-02	
     14872.20000	      1.23449e-02	
     14914.00000	      1.26877e-02	
     14955.80000	      1.51572e-02	
     14997.50000	      1.48151e-02	
     15039.20000	      1.62612e-02	
     15080.90000	      1.85444e-02	
     15122.40000	      2.03818e-02	
     15163.90000	      2.19926e-02	
     15205.40000	      2.40218e-02	
     15246.80000	      2.55816e-02	
     15288.20000	      2.78857e-02	
     15329.50000	      2.97584e-02	
     15370.70000	      3.33118e-02	
     15411.90000	      3.47396e-02	
     15453.00000	      3.69174e-02	
     15494.10000	      3.95020e-02	
     15535.10000	      4.18170e-02	
     15576.00000	      4.23970e-02	
     15616.90000	      4.39639e-02	
     15657.70000	      4.61004e-02	
     15698.50000	      4.65334e-02	
     15739.20000	      4.84267e-02	
     15779.80000	      4.93813e-02	
     15820.40000	      4.94224e-02	
     15860.90000	      4.93545e-02	
     15901.30000	      4.81690e-02	
     15941.70000	      4.60192e-02	
     15982.00000	      4.41183e-02	
     16022.30000	      3.94871e-02	
     16062.50000	      3.49026e-02	
     16102.60000	      2.93210e-02	
     16142.70000	      2.57184e-02	
     16182.70000	      2.24951e-02	
     16222.60000	      1.98317e-02	
     16262.50000	      1.86334e-02	
     16302.30000	      1.79959e-02	
     16342.00000	      1.79660e-02	
     16381.70000	      1.86649e-02	
     16421.30000	      1.95078e-02	
     16460.80000	      2.03756e-02	
     16500.30000	      2.08099e-02	
     16539.70000	      2.18574e-02	
     16579.10000	      2.19564e-02	
     16618.30000	      1.98526e-02	
     16657.60000	      1.51349e-02	
     16696.70000	      1.37130e-02	
     16735.80000	      1.26334e-02	
     16774.80000	      1.43072e-02	
     16813.80000	      1.70215e-02	
     16852.70000	      1.85301e-02	
     16891.50000	      1.79618e-02	
     16930.20000	      1.67073e-02	
     16968.90000	      1.66831e-02	
     17007.50000	      1.46598e-02	
     17046.10000	      1.49460e-02	
     17084.60000	      1.46804e-02	
     17123.00000	      1.57547e-02	
     17161.40000	      1.58178e-02	
     17199.70000	      1.66656e-02	
     17237.90000	      1.68002e-02	
     17276.10000	      1.51003e-02	
     17314.20000	      1.48655e-02	
     17352.20000	      1.31778e-02	
     17390.20000	      1.35470e-02	
     17428.10000	      1.18174e-02	
     17466.00000	      1.11787e-02	
     17503.80000	      1.09826e-02	
     17541.50000	      1.05211e-02	
     17579.20000	      1.03881e-02	
     17616.80000	      9.92628e-03	
     17654.30000	      9.64888e-03	
     17691.80000	      7.86200e-03	
     17729.20000	      7.01873e-03	
     17766.50000	      7.38244e-03	
     17803.80000	      6.17995e-03	
     17841.00000	      6.33722e-03	
     17878.20000	      6.36858e-03	
     17915.30000	      5.90104e-03	
     17952.30000	      5.11140e-03	
     17989.30000	      4.40060e-03	
     18026.20000	      4.82940e-03	
     18063.10000	      3.96054e-03	
     18099.90000	      5.34675e-03	
     18136.60000	      4.77177e-03	
     18173.30000	      5.31450e-03	
     18209.90000	      5.72464e-03	
     18246.50000	      5.73545e-03	
     18283.00000	      5.46782e-03	
     18319.40000	      4.10413e-03	
     18355.80000	      4.09581e-03	
     18392.10000	      5.45110e-03	
     18428.40000	      4.99037e-03	
     18464.60000	      5.94975e-03	
     18500.70000	      4.76483e-03	
     18536.80000	      5.03266e-03	
     18572.90000	      4.81429e-03	
     18608.90000	      3.73759e-03	
     18644.80000	      2.93087e-03	
     18680.70000	      3.39971e-03	
     18716.50000	      5.24651e-03	
     18752.20000	      5.18214e-03	
     18788.00000	      4.93682e-03	
     18823.60000	      6.18271e-03	
     18859.20000	      6.33373e-03	
     18894.80000	      6.45985e-03	
     18930.30000	      6.59390e-03	
     18965.70000	      7.18169e-03	
     19001.10000	      6.86887e-03	
     19036.40000	      7.90155e-03	
     19071.70000	      7.35561e-03	
     19106.90000	      8.00324e-03	
     19142.10000	      7.45821e-03	
     19177.20000	      8.39512e-03	
     19212.30000	      7.18733e-03	
     19247.30000	      6.01579e-03	
     19282.30000	      5.38442e-03	
     19317.20000	      5.02355e-03	
     19352.10000	      4.21430e-03	
     19386.90000	      4.54730e-03	
     19421.70000	      4.55737e-03	
     19456.40000	      4.62875e-03	
     19491.00000	      4.78250e-03	
     19525.70000	      4.47945e-03	
     19560.20000	      4.74687e-03	
     19594.80000	      5.14857e-03	
     19629.20000	      5.21871e-03	
     19663.70000	      5.83857e-03	
     19698.00000	      5.41867e-03	
     19732.40000	      6.14095e-03	
     19766.60000	      6.33536e-03	
     19800.90000	      6.29622e-03	
     19835.10000	      6.97877e-03	
     19869.20000	      6.96554e-03	
     19903.30000	      7.37190e-03	
     19937.30000	      7.73486e-03	
     19971.30000	      8.36772e-03	
     20005.30000	      8.30177e-03	
     20039.20000	      8.61485e-03	
     20073.00000	      8.50854e-03	
     20106.80000	      9.28961e-03	
     20140.60000	      9.77013e-03	
     20174.30000	      1.07609e-02	
     20208.00000	      1.12583e-02	
     20241.60000	      1.09253e-02	
     20275.20000	      1.18481e-02	
     20308.70000	      1.14125e-02	
     20342.20000	      1.22381e-02	
     20375.70000	      1.31149e-02	
     20409.10000	      1.24704e-02	
     20442.40000	      1.35805e-02	
     20475.70000	      1.34365e-02	
     20509.00000	      1.40336e-02	
     20542.20000	      1.48368e-02	
     20575.40000	      1.50977e-02	
     20608.50000	      1.50604e-02	
     20641.60000	      1.51963e-02	
     20674.60000	      1.48956e-02	
     20707.60000	      1.52229e-02	
     20740.50000	      1.51557e-02	
     20773.40000	      1.55807e-02	
     20806.30000	      1.53485e-02	
     20839.10000	      1.53489e-02	
     20871.90000	      1.58167e-02	
     20904.60000	      1.53509e-02	
     20937.20000	      1.55674e-02	
     20969.90000	      1.51897e-02	
     21002.50000	      1.51862e-02	
     21035.00000	      1.47607e-02	
     21067.50000	      1.53418e-02	
     21099.90000	      1.47875e-02	
     21132.30000	      1.49312e-02	
     21164.70000	      1.43375e-02	
     21197.00000	      1.44872e-02	
     21229.30000	      1.45300e-02	
     21261.50000	      1.41524e-02	
     21293.60000	      1.32689e-02	
     21325.80000	      1.30141e-02	
     21357.90000	      1.31396e-02	
     21389.90000	      1.25848e-02	
     21421.90000	      1.25213e-02	
     21453.80000	      1.27725e-02	
     21485.70000	      1.19944e-02	
     21517.60000	      1.10410e-02	
     21549.40000	      1.16140e-02	
     21581.10000	      1.11611e-02	
     21612.80000	      1.03210e-02	
     21644.50000	      1.03554e-02	
     21676.10000	      1.01485e-02	
     21707.60000	      9.74958e-03	
     21739.20000	      9.65301e-03	
     21770.60000	      9.05770e-03	
     21802.00000	      8.68274e-03	
     21833.40000	      8.13676e-03	
     21864.70000	      7.72801e-03	
     21896.00000	      7.06270e-03	
     21927.20000	      6.86486e-03	
     21958.40000	      4.99121e-03	
     21989.50000	      3.99860e-03	
     22020.60000	      3.37329e-03	
     22051.60000	      2.31490e-03	
     22082.60000	      3.43827e-03	
     22113.60000	      3.21012e-03	
     22144.40000	      3.55680e-03	
     22175.30000	      3.36665e-03	
     22206.10000	      3.39680e-03	
     22236.80000	      4.13314e-03	
     22267.50000	      3.49170e-03	
     22298.10000	      3.40911e-03	
     22328.70000	      2.86622e-03	
     22359.20000	      3.40309e-03	
     22389.70000	      2.62553e-03	
     22420.10000	      2.29060e-03	
     22450.50000	      2.83428e-03	
     22480.80000	      2.66397e-03	
     22511.10000	      2.33776e-03	
     22541.30000	      1.99779e-03	
     22571.50000	      2.30541e-03	
     22601.60000	      2.00622e-03	
     22631.60000	      2.48418e-03	
     22661.70000	      2.35051e-03	
     22691.60000	      2.03634e-03	
     22721.50000	      2.02121e-03	
     22751.40000	      1.50654e-03	
     22781.20000	      1.97389e-03	
     22811.00000	      1.92413e-03	
     22840.70000	      1.95153e-03	
     22870.30000	      1.96842e-03	
     22899.90000	      1.76513e-03	
     22929.50000	      1.83882e-03	
     22959.00000	      1.50521e-03	
     22988.40000	      1.49664e-03	
     23017.80000	      2.09731e-03	
     23047.10000	      1.83712e-03	
     23076.40000	      2.56053e-03	
     23105.70000	      2.64467e-03	
     23134.80000	      2.36527e-03	
     23164.00000	      2.97817e-03	
     23193.10000	      1.56959e-03	
     23222.10000	      1.33910e-03	
     23251.10000	      1.34429e-03	
     23280.00000	      1.10515e-03	
     23308.90000	      1.57948e-03	
     23337.70000	      1.16042e-03	
     23366.50000	      8.98466e-04	
     23395.20000	      1.21613e-03	
     23423.90000	      8.68186e-04	
     23452.60000	      1.23208e-03	
     23481.20000	      1.25796e-03	
     23509.70000	      1.32420e-03	
     23538.20000	      1.49154e-03	
     23566.60000	      1.25981e-03	
     23595.00000	      2.09989e-03	
     23623.40000	      1.71833e-03	
     23651.70000	      2.13710e-03	
     23680.00000	      1.79924e-03	
     23708.20000	      1.88591e-03	
     23736.40000	      1.51718e-03	
     23764.50000	      1.63312e-03	
     23792.60000	      1.56284e-03	
     23820.70000	      1.48978e-03	
     23848.70000	      1.55100e-03	
     23876.70000	      1.48209e-03	
     23904.60000	      1.84203e-03	
     23932.50000	      1.37167e-03	
     23960.40000	      2.81664e-03	
     23988.20000	      2.18376e-03	
     24016.00000	      2.19090e-03	
     24043.80000	      2.25064e-03	
     24071.60000	      2.15499e-03	
     24099.30000	      2.43884e-03	
     24126.90000	      2.53552e-03	
     24154.60000	      2.48398e-03	
     24182.20000	      2.62170e-03	
     24209.80000	      2.41537e-03	
     24237.40000	      2.95121e-03	
     24265.00000	      2.59046e-03	
     24292.50000	      2.79817e-03	
     24320.00000	      2.20392e-03	
     24347.50000	      3.44017e-03	
     24375.00000	      3.45663e-03	
     24402.50000	      2.82374e-03	
     24429.90000	      2.32332e-03	
     24457.40000	      3.29356e-03	
     24484.80000	      2.58008e-03	
     24512.30000	      2.95528e-03	
     24539.70000	      3.18609e-03	
     24567.10000	      2.74229e-03	
     24594.60000	      3.83939e-03	
     24622.00000	      3.02778e-03	
     24649.50000	      3.10002e-03	
     24676.90000	      2.70299e-03	
     24704.40000	      2.25786e-03	
     24731.90000	      3.27545e-03	
     24759.40000	      2.60541e-03	
     24786.90000	      3.43933e-03	
     24814.40000	      3.23676e-03	
     24842.00000	      2.97398e-03	
     24869.60000	      2.43796e-03	
     24897.20000	      3.36810e-03	
     24924.90000	      3.37684e-03	
     24952.60000	      1.66232e-03	
     24980.30000	      2.39953e-03	
     25008.10000	      2.68578e-03	
     25035.90000	      2.61015e-03	
     25063.80000	      2.62774e-03	
     25091.80000	      2.46150e-03	
     25119.80000	      1.61015e-03	
     25147.80000	      2.08645e-03	
     25176.00000	      3.51242e-03	
     25204.20000	      1.53108e-03	
     25232.40000	      1.27844e-03	
     25260.80000	      3.39441e-03	
     25289.30000	      2.64615e-03	
     25317.80000	      3.57397e-03	
     25346.40000	      3.49895e-03	
     25375.20000	      1.07825e-03	
     25404.00000	      6.86305e-03	
     25432.90000	      1.04871e-04	
     25462.00000	      1.95619e-03	
     25491.20000	      1.23381e-05	
     25520.50000	      6.19791e-03	
     25549.90000	      1.79603e-03	
     25579.50000	      3.46939e-03	
     25609.20000	      1.06134e-03	
#time:0.008366
