# The SpeX Prism Spectral Libraries
# spty = Opt:L6  (Spectral type)
#
#     WAVELENGTH	#            FLUX	
#     (ANGSTROM)	#   (ERG/CM2/S/A)	
################	#################	
      6503.12000	      6.77645e-02	
      6525.31000	     -4.51294e-02	
      6547.38000	     -3.75641e-02	
      6569.36000	     -2.45663e-02	
      6591.24000	     -4.01944e-02	
      6613.04000	      1.56811e-02	
      6634.76000	     -4.63669e-02	
      6656.43000	     -1.67037e-02	
      6678.04000	     -3.67141e-02	
      6699.61000	      3.41143e-03	
      6721.14000	     -1.27896e-02	
      6742.64000	     -3.10888e-02	
      6764.12000	     -4.08931e-02	
      6785.59000	     -4.08946e-02	
      6807.06000	     -9.64194e-02	
      6828.53000	     -7.45358e-02	
      6850.02000	     -2.27200e-02	
      6871.52000	     -1.16652e-02	
      6893.05000	     -4.64421e-02	
      6914.61000	      1.61729e-02	
      6936.21000	      2.73231e-02	
      6957.85000	      1.09706e-02	
      6979.55000	      6.15367e-03	
      7001.31000	      3.60589e-02	
      7023.13000	      4.84201e-02	
      7045.02000	     -5.21195e-03	
      7066.99000	      2.72642e-03	
      7089.04000	      4.70381e-03	
      7111.18000	     -5.43360e-04	
      7133.41000	      1.48875e-02	
      7155.74000	      1.94842e-02	
      7178.17000	      3.19027e-02	
      7200.70000	      6.61420e-02	
      7223.35000	      9.00720e-03	
      7246.12000	      5.84766e-03	
      7269.00000	      3.19969e-02	
      7292.01000	      3.60386e-03	
      7315.15000	     -3.37762e-02	
      7338.43000	     -1.21589e-02	
      7361.84000	      2.26563e-02	
      7385.38000	      5.14874e-03	
      7409.08000	      1.27853e-03	
      7432.92000	     -4.87423e-03	
      7456.91000	      3.11423e-03	
      7481.05000	     -7.37261e-03	
      7505.35000	      2.78057e-02	
      7529.81000	     -7.41470e-03	
      7554.43000	      2.19565e-02	
      7579.21000	      1.16022e-02	
      7604.17000	      9.96274e-03	
      7629.29000	      1.45616e-02	
      7654.58000	     -1.06378e-03	
      7680.05000	      1.19703e-02	
      7705.69000	     -4.48635e-03	
      7731.51000	     -2.21662e-02	
      7757.51000	     -1.43816e-02	
      7783.70000	     -2.25304e-03	
      7810.06000	     -5.97843e-03	
      7836.61000	     -1.07726e-02	
      7863.35000	      1.77710e-03	
      7890.27000	      1.40503e-02	
      7917.39000	      4.82703e-03	
      7944.69000	     -3.92399e-03	
      7972.18000	      1.52210e-02	
      7999.87000	      2.65797e-03	
      8027.75000	      7.10376e-03	
      8055.82000	      5.91324e-03	
      8084.09000	      1.18126e-02	
      8112.55000	      8.99364e-03	
      8141.20000	      5.25311e-03	
      8170.06000	      2.28272e-02	
      8199.11000	      7.07714e-03	
      8228.35000	      7.62259e-03	
      8257.79000	      3.02323e-02	
      8287.43000	      1.05899e-02	
      8317.27000	      1.61624e-02	
      8347.31000	      8.13608e-03	
      8377.54000	      1.55898e-02	
      8407.96000	      2.96310e-02	
      8438.59000	      9.96757e-03	
      8469.41000	      2.39914e-03	
      8500.43000	      2.55412e-02	
      8531.64000	      2.67492e-02	
      8563.05000	      2.23803e-02	
      8594.65000	      2.40277e-02	
      8626.45000	      2.01873e-02	
      8658.44000	      2.03886e-02	
      8690.63000	      1.57037e-02	
      8723.01000	      1.37756e-02	
      8755.57000	      1.83599e-02	
      8788.33000	      1.75261e-02	
      8821.28000	      2.09031e-02	
      8854.42000	      2.11679e-02	
      8887.75000	      2.77634e-02	
      8921.26000	      3.33425e-02	
      8954.96000	      2.15503e-02	
      8988.84000	      4.43711e-03	
      9022.91000	      2.70662e-02	
      9057.16000	      2.46185e-02	
      9091.59000	      2.38439e-02	
      9126.20000	      1.90826e-02	
      9160.98000	      2.61496e-02	
      9195.95000	      2.71528e-02	
      9231.09000	      3.61614e-02	
      9266.40000	      2.04911e-02	
      9301.89000	      3.19335e-02	
      9337.55000	      3.29796e-02	
      9373.38000	      2.87608e-02	
      9409.37000	      3.19110e-02	
      9445.54000	      2.80354e-02	
      9481.87000	      3.15330e-02	
      9518.36000	      3.50553e-02	
      9555.01000	      3.00275e-02	
      9591.82000	      3.68836e-02	
      9628.79000	      3.51386e-02	
      9665.92000	      3.55226e-02	
      9703.20000	      4.10375e-02	
      9740.63000	      4.30058e-02	
      9778.22000	      4.35307e-02	
      9815.95000	      4.44347e-02	
      9853.84000	      4.06217e-02	
      9891.86000	      4.38595e-02	
      9930.03000	      3.65576e-02	
      9968.34000	      3.69918e-02	
     10006.80000	      3.79296e-02	
     10045.40000	      3.90166e-02	
     10084.10000	      5.27815e-02	
     10123.00000	      4.49406e-02	
     10162.00000	      4.31984e-02	
     10201.10000	      4.99748e-02	
     10240.30000	      4.78773e-02	
     10279.70000	      4.85865e-02	
     10319.20000	      6.00001e-02	
     10358.80000	      5.35538e-02	
     10398.50000	      5.35396e-02	
     10438.40000	      5.42045e-02	
     10478.40000	      5.64347e-02	
     10518.50000	      5.55964e-02	
     10558.60000	      5.92174e-02	
     10599.00000	      6.62613e-02	
     10639.40000	      6.09178e-02	
     10679.90000	      5.98323e-02	
     10720.50000	      5.87955e-02	
     10761.20000	      6.17586e-02	
     10802.00000	      6.49340e-02	
     10842.90000	      7.24589e-02	
     10884.00000	      6.52931e-02	
     10925.10000	      6.73886e-02	
     10966.20000	      5.75192e-02	
     11007.50000	      6.25724e-02	
     11048.90000	      6.02525e-02	
     11090.30000	      5.84802e-02	
     11131.90000	      5.73169e-02	
     11173.50000	      5.59965e-02	
     11215.20000	      6.28754e-02	
     11256.90000	      5.75963e-02	
     11298.80000	      5.91774e-02	
     11340.70000	      5.76965e-02	
     11382.70000	      5.19397e-02	
     11424.70000	      6.27872e-02	
     11466.80000	      6.26410e-02	
     11509.00000	      5.67312e-02	
     11551.20000	      6.23668e-02	
     11593.50000	      6.56965e-02	
     11635.90000	      6.43876e-02	
     11678.30000	      6.41978e-02	
     11720.70000	      6.05869e-02	
     11763.20000	      6.09270e-02	
     11805.80000	      6.38024e-02	
     11848.40000	      6.79905e-02	
     11891.00000	      7.29758e-02	
     11933.70000	      7.10091e-02	
     11976.50000	      6.56669e-02	
     12019.20000	      7.11383e-02	
     12062.10000	      7.53099e-02	
     12104.90000	      7.28215e-02	
     12147.80000	      7.73295e-02	
     12190.70000	      8.13308e-02	
     12233.60000	      7.90327e-02	
     12276.60000	      8.12263e-02	
     12319.60000	      8.49011e-02	
     12362.60000	      8.29538e-02	
     12405.70000	      7.94307e-02	
     12448.70000	      8.18843e-02	
     12491.80000	      8.47356e-02	
     12534.90000	      8.83537e-02	
     12578.00000	      8.87250e-02	
     12621.20000	      9.26693e-02	
     12664.30000	      9.08939e-02	
     12707.50000	      9.45873e-02	
     12750.60000	      9.81810e-02	
     12793.80000	      1.00108e-01	
     12837.00000	      9.70629e-02	
     12880.20000	      1.00377e-01	
     12923.30000	      9.74321e-02	
     12966.50000	      9.32179e-02	
     13009.70000	      9.13767e-02	
     13052.90000	      9.80715e-02	
     13096.00000	      9.35276e-02	
     13139.20000	      9.49402e-02	
     13182.40000	      9.32069e-02	
     13225.50000	      8.97664e-02	
     13268.70000	      8.83575e-02	
     13311.80000	      7.52632e-02	
     13354.90000	      6.15626e-02	
     13398.00000	      5.25374e-02	
     13441.10000	      4.30670e-02	
     13484.20000	      4.57847e-02	
     13527.20000	      3.77800e-02	
     13570.30000	      3.84750e-02	
     13613.30000	      3.58041e-02	
     13656.30000	      3.72188e-02	
     13699.20000	      3.98007e-02	
     13742.20000	      4.29922e-02	
     13785.10000	      4.36385e-02	
     13828.00000	      4.04399e-02	
     13870.90000	      4.26668e-02	
     13913.70000	      4.20666e-02	
     13956.50000	      4.02455e-02	
     13999.30000	      4.72744e-02	
     14042.00000	      3.89940e-02	
     14084.70000	      4.31936e-02	
     14127.40000	      3.96495e-02	
     14170.00000	      4.10591e-02	
     14212.60000	      3.92614e-02	
     14255.10000	      3.21264e-02	
     14297.60000	      3.78341e-02	
     14340.10000	      3.71737e-02	
     14382.60000	      3.79751e-02	
     14425.00000	      3.86844e-02	
     14467.30000	      4.37393e-02	
     14509.60000	      4.99225e-02	
     14551.90000	      4.85276e-02	
     14594.10000	      4.94172e-02	
     14636.30000	      5.03017e-02	
     14678.40000	      4.87480e-02	
     14720.50000	      4.87397e-02	
     14762.50000	      5.13555e-02	
     14804.50000	      5.27894e-02	
     14846.40000	      5.33124e-02	
     14888.30000	      5.46067e-02	
     14930.10000	      5.52444e-02	
     14971.90000	      5.68876e-02	
     15013.60000	      5.96601e-02	
     15055.20000	      6.24682e-02	
     15096.80000	      5.50875e-02	
     15138.40000	      5.90092e-02	
     15179.90000	      6.69787e-02	
     15221.30000	      6.80670e-02	
     15262.70000	      6.91202e-02	
     15304.10000	      7.20072e-02	
     15345.30000	      7.58482e-02	
     15386.50000	      7.61254e-02	
     15427.70000	      7.88993e-02	
     15468.80000	      8.01582e-02	
     15509.80000	      8.00448e-02	
     15550.80000	      8.57083e-02	
     15591.70000	      8.71645e-02	
     15632.60000	      8.43334e-02	
     15673.40000	      8.48586e-02	
     15714.10000	      8.45352e-02	
     15754.80000	      8.66685e-02	
     15795.40000	      9.12809e-02	
     15835.90000	      8.90017e-02	
     15876.40000	      9.01272e-02	
     15916.90000	      8.86108e-02	
     15957.20000	      9.73179e-02	
     15997.50000	      9.37023e-02	
     16037.70000	      1.02563e-01	
     16077.90000	      1.00065e-01	
     16118.00000	      9.36989e-02	
     16158.00000	      9.25521e-02	
     16198.00000	      8.86200e-02	
     16237.90000	      9.79417e-02	
     16277.80000	      9.87733e-02	
     16317.50000	      9.53992e-02	
     16357.30000	      9.89015e-02	
     16396.90000	      1.00228e-01	
     16436.50000	      9.59793e-02	
     16476.00000	      1.02309e-01	
     16515.50000	      1.05028e-01	
     16554.90000	      9.88512e-02	
     16594.20000	      9.55829e-02	
     16633.40000	      1.01726e-01	
     16672.60000	      9.81785e-02	
     16711.70000	      9.89242e-02	
     16750.80000	      9.89695e-02	
     16789.80000	      9.92072e-02	
     16828.70000	      1.00201e-01	
     16867.60000	      1.00604e-01	
     16906.40000	      1.02726e-01	
     16945.10000	      1.01975e-01	
     16983.80000	      9.60904e-02	
     17022.40000	      9.43616e-02	
     17060.90000	      9.82969e-02	
     17099.40000	      9.73534e-02	
     17137.80000	      9.36577e-02	
     17176.10000	      9.14257e-02	
     17214.40000	      9.03291e-02	
     17252.60000	      8.63295e-02	
     17290.80000	      8.52115e-02	
     17328.80000	      8.13763e-02	
     17366.90000	      7.88529e-02	
     17404.80000	      7.66649e-02	
     17442.70000	      7.32210e-02	
     17480.50000	      7.72427e-02	
     17518.30000	      7.42990e-02	
     17556.00000	      7.21627e-02	
     17593.60000	      7.29838e-02	
     17631.20000	      7.14239e-02	
     17668.70000	      6.52618e-02	
     17706.10000	      6.05180e-02	
     17743.50000	      6.35923e-02	
     17780.80000	      5.96202e-02	
     17818.10000	      5.89465e-02	
     17855.30000	      6.02733e-02	
     17892.40000	      5.42112e-02	
     17929.50000	      5.72484e-02	
     17966.50000	      5.55552e-02	
     18003.50000	      5.40324e-02	
     18040.40000	      5.08211e-02	
     18077.20000	      4.44382e-02	
     18114.00000	      5.14895e-02	
     18150.70000	      5.19301e-02	
     18187.40000	      4.88512e-02	
     18224.00000	      5.06222e-02	
     18260.50000	      5.13358e-02	
     18297.00000	      5.62710e-02	
     18333.40000	      5.25320e-02	
     18369.80000	      4.98555e-02	
     18406.10000	      4.75795e-02	
     18442.30000	      4.84818e-02	
     18478.50000	      5.30789e-02	
     18514.60000	      4.95949e-02	
     18550.70000	      4.42824e-02	
     18586.70000	      4.71633e-02	
     18622.70000	      3.99587e-02	
     18658.60000	      4.42571e-02	
     18694.40000	      5.05800e-02	
     18730.20000	      4.37493e-02	
     18766.00000	      5.18208e-02	
     18801.70000	      4.31399e-02	
     18837.30000	      4.78279e-02	
     18872.90000	      4.79402e-02	
     18908.40000	      4.97383e-02	
     18943.90000	      5.11180e-02	
     18979.30000	      5.23849e-02	
     19014.70000	      4.88839e-02	
     19050.00000	      5.14175e-02	
     19085.20000	      5.48962e-02	
     19120.40000	      5.11732e-02	
     19155.60000	      5.60725e-02	
     19190.70000	      5.51111e-02	
     19225.80000	      5.74350e-02	
     19260.80000	      5.03563e-02	
     19295.70000	      5.23946e-02	
     19330.60000	      4.82011e-02	
     19365.50000	      4.86170e-02	
     19400.30000	      4.74443e-02	
     19435.00000	      4.88798e-02	
     19469.70000	      4.78366e-02	
     19504.40000	      4.90422e-02	
     19539.00000	      4.75974e-02	
     19573.50000	      4.86190e-02	
     19608.00000	      4.37394e-02	
     19642.50000	      4.82059e-02	
     19676.90000	      5.04446e-02	
     19711.20000	      4.77542e-02	
     19745.50000	      4.60819e-02	
     19779.80000	      4.87282e-02	
     19814.00000	      4.72536e-02	
     19848.20000	      4.81030e-02	
     19882.30000	      5.01184e-02	
     19916.40000	      5.03309e-02	
     19950.40000	      4.94026e-02	
     19984.40000	      5.07105e-02	
     20018.30000	      5.96641e-02	
     20052.20000	      5.17295e-02	
     20086.00000	      4.78889e-02	
     20119.80000	      5.37744e-02	
     20153.60000	      5.09018e-02	
     20187.30000	      5.26478e-02	
     20220.90000	      5.44176e-02	
     20254.50000	      5.61105e-02	
     20288.10000	      5.44175e-02	
     20321.60000	      5.12727e-02	
     20355.10000	      5.76802e-02	
     20388.50000	      5.95241e-02	
     20421.90000	      6.14931e-02	
     20455.20000	      5.84861e-02	
     20488.50000	      6.17032e-02	
     20521.80000	      6.11877e-02	
     20554.90000	      5.92477e-02	
     20588.10000	      5.91491e-02	
     20621.20000	      6.67313e-02	
     20654.30000	      6.49487e-02	
     20687.30000	      6.48934e-02	
     20720.30000	      6.56333e-02	
     20753.20000	      6.56488e-02	
     20786.10000	      6.50706e-02	
     20818.90000	      6.35998e-02	
     20851.70000	      6.89485e-02	
     20884.40000	      6.46209e-02	
     20917.10000	      6.79778e-02	
     20949.80000	      6.72739e-02	
     20982.40000	      6.99851e-02	
     21015.00000	      6.99654e-02	
     21047.50000	      6.73083e-02	
     21080.00000	      6.79575e-02	
     21112.40000	      6.90112e-02	
     21144.80000	      7.02419e-02	
     21177.10000	      6.94590e-02	
     21209.40000	      7.02486e-02	
     21241.70000	      7.18465e-02	
     21273.90000	      6.90303e-02	
     21306.00000	      7.12574e-02	
     21338.10000	      7.02291e-02	
     21370.20000	      7.26112e-02	
     21402.20000	      7.01087e-02	
     21434.20000	      7.24065e-02	
     21466.10000	      7.21100e-02	
     21498.00000	      7.28344e-02	
     21529.80000	      6.80916e-02	
     21561.60000	      7.32305e-02	
     21593.30000	      7.14532e-02	
     21625.00000	      7.06466e-02	
     21656.60000	      7.10413e-02	
     21688.20000	      7.19865e-02	
     21719.80000	      7.02210e-02	
     21751.30000	      7.00410e-02	
     21782.70000	      6.98987e-02	
     21814.10000	      6.62530e-02	
     21845.50000	      7.17154e-02	
     21876.80000	      6.93202e-02	
     21908.00000	      6.78326e-02	
     21939.20000	      6.63208e-02	
     21970.40000	      7.03615e-02	
     22001.50000	      6.76563e-02	
     22032.60000	      7.00817e-02	
     22063.60000	      6.89393e-02	
     22094.50000	      6.86172e-02	
     22125.40000	      6.81480e-02	
     22156.30000	      6.47640e-02	
     22187.10000	      6.63046e-02	
     22217.90000	      6.52556e-02	
     22248.60000	      6.60996e-02	
     22279.20000	      6.54871e-02	
     22309.90000	      6.56211e-02	
     22340.40000	      6.61374e-02	
     22370.90000	      6.83776e-02	
     22401.40000	      6.52622e-02	
     22431.80000	      6.41737e-02	
     22462.10000	      6.26776e-02	
     22492.40000	      6.26310e-02	
     22522.70000	      6.38692e-02	
     22552.90000	      6.42014e-02	
     22583.10000	      6.43880e-02	
     22613.10000	      6.43846e-02	
     22643.20000	      6.21053e-02	
     22673.20000	      6.31077e-02	
     22703.10000	      6.35569e-02	
     22733.00000	      6.42847e-02	
     22762.90000	      6.48777e-02	
     22792.60000	      6.02761e-02	
     22822.40000	      6.09343e-02	
     22852.10000	      6.14833e-02	
     22881.70000	      6.07810e-02	
     22911.30000	      5.93230e-02	
     22940.80000	      5.92905e-02	
     22970.30000	      5.32310e-02	
     22999.70000	      4.98012e-02	
     23029.10000	      5.21451e-02	
     23058.40000	      5.21242e-02	
     23087.70000	      5.09455e-02	
     23116.90000	      5.11319e-02	
     23146.00000	      5.28474e-02	
     23175.20000	      5.00311e-02	
     23204.20000	      5.15055e-02	
     23233.20000	      4.97645e-02	
     23262.20000	      5.01077e-02	
     23291.10000	      4.77831e-02	
     23320.00000	      4.91750e-02	
     23348.80000	      4.97891e-02	
     23377.60000	      4.81308e-02	
     23406.30000	      5.06420e-02	
     23434.90000	      5.16588e-02	
     23463.60000	      4.92995e-02	
     23492.10000	      5.01881e-02	
     23520.70000	      5.09042e-02	
     23549.10000	      5.17808e-02	
     23577.60000	      4.70832e-02	
     23606.00000	      5.14108e-02	
     23634.30000	      5.02745e-02	
     23662.60000	      4.63687e-02	
     23690.80000	      5.00101e-02	
     23719.10000	      5.10347e-02	
     23747.20000	      4.88342e-02	
     23775.30000	      5.18467e-02	
     23803.40000	      4.86198e-02	
     23831.50000	      4.68997e-02	
     23859.50000	      4.71646e-02	
     23887.40000	      4.72059e-02	
     23915.40000	      4.85898e-02	
     23943.30000	      4.72847e-02	
     23971.10000	      4.97465e-02	
     23998.90000	      4.79815e-02	
     24026.70000	      4.86715e-02	
     24054.50000	      4.98214e-02	
     24082.20000	      4.51520e-02	
     24109.90000	      4.50697e-02	
     24137.60000	      4.48297e-02	
     24165.20000	      4.38619e-02	
     24192.80000	      4.54199e-02	
     24220.40000	      4.54466e-02	
     24248.00000	      4.41488e-02	
     24275.50000	      4.60022e-02	
     24303.10000	      4.26345e-02	
     24330.60000	      4.23739e-02	
     24358.10000	      4.30319e-02	
     24385.60000	      4.54846e-02	
     24413.00000	      4.33881e-02	
     24440.50000	      4.33823e-02	
     24467.90000	      4.32881e-02	
     24495.40000	      3.88833e-02	
     24522.80000	      3.84791e-02	
     24550.30000	      3.81890e-02	
     24577.70000	      3.97961e-02	
     24605.10000	      3.98623e-02	
     24632.60000	      3.73219e-02	
     24660.00000	      4.09625e-02	
     24687.50000	      2.94264e-02	
     24715.00000	      3.65685e-02	
     24742.40000	      3.41920e-02	
     24769.90000	      3.84606e-02	
     24797.50000	      3.94575e-02	
     24825.00000	      3.80866e-02	
     24852.60000	      3.96413e-02	
     24880.20000	      3.40204e-02	
     24907.80000	      2.95715e-02	
     24935.50000	      3.31518e-02	
     24963.20000	      2.93524e-02	
     24991.00000	      3.52381e-02	
     25018.80000	      3.06051e-02	
     25046.60000	      3.75655e-02	
     25074.60000	      3.10936e-02	
     25102.50000	      3.51440e-02	
     25130.50000	      3.11233e-02	
     25158.60000	      2.82914e-02	
     25186.80000	      3.79574e-02	
     25215.00000	      3.52166e-02	
     25243.30000	      2.97392e-02	
     25271.70000	      3.77928e-02	
     25300.20000	      3.00118e-02	
     25328.80000	      3.16662e-02	
     25357.50000	      3.16566e-02	
     25386.20000	      2.12960e-02	
     25415.10000	      2.97205e-02	
     25444.10000	      3.17949e-02	
     25473.20000	      3.67823e-02	
     25502.40000	      4.16113e-02	
     25531.80000	      5.16642e-02	
     25561.30000	      4.80185e-03	
     25590.90000	      2.42612e-02	
     25620.60000	      4.03512e-02	
#time:0.008426
